"build","computer.platform","computer.touch","date","time","subject","group","sessionid","blockcode","blocknum","trialcode","latency","randStart","startPos","scrfunc","rtvspos","randStart","mag","freq","ev","inc","rng","startPos","fogPos1","fogPos2","chooseUncertainty1","chooseUncertainty2","uncertaintyCount1","uncertaintyCount2","blockCount","ntrials","trialCount","uncertaintyStart1","uncertaintyStart2","uncertainty_block","rt_shifted","totalPoints","totalEarnings","Earnings"
"6.6.1","mac","0","2023-02-23","18:09:07","420494935","1","1","instructions","1","instructions1","24548","1","75","IEV","POS","1","","","","","","75","0","0","0","0","0","0","0","10","0","0","0","0","","0","0",""
"6.6.1","mac","0","2023-02-23","18:09:07","420494935","1","1","instructions","1","displayGoodJob","2814","1","75","IEV","POS","1","","","","","","75","0","0","0","0","0","0","0","10","0","0","0","0","","0","0",""
"6.6.1","mac","0","2023-02-23","18:09:07","420494935","1","1","instructions","1","feedback2_5","3000","1","75","IEV","POS","1","","","","","","75","0","0","0","0","0","0","0","10","0","0","0","0","","0","0","0"
"6.6.1","mac","0","2023-02-23","18:09:07","420494935","1","1","instructions","1","instructions3","23666","1","75","IEV","POS","1","","","","","","75","0","0","0","0","0","0","0","10","0","0","0","0","","0","0","0"
"6.6.1","mac","0","2023-02-23","18:09:07","420494935","1","1","instructions","1","instructions4","2959","1","75","IEV","POS","1","","","","","","75","0","0","0","0","0","0","0","10","0","0","0","0","","0","0","0"
"6.6.1","mac","0","2023-02-23","18:09:07","420494935","1","1","instructions","1","sampleResponse","3000","1","75","IEV","POS","1","","","","","","75","0","0","0","0","0","0","0","10","0","0","0","0","2959","0","0","0"
"6.6.1","mac","0","2023-02-23","18:09:07","420494935","1","1","instructions","1","instructions5","7236","1","75","IEV","POS","1","","","","","","75","0","0","0","0","0","0","0","10","0","0","0","0","2959","0","0","0"
"6.6.1","mac","0","2023-02-23","18:09:07","420494935","1","1","instructions","1","countdown","1000","1","75","IEV","POS","1","","","","","","75","0","0","0","0","0","0","0","10","0","0","0","0","2959","0","0","0"
"6.6.1","mac","0","2023-02-23","18:09:07","420494935","1","1","experiment","2","experiment_noU","585","1","73","CEVR","POS","1","","","","","","73","35","25","0","0","0","0","1","36","0","5","29","0","2959","0","0","0"
"6.6.1","mac","0","2023-02-23","18:09:07","420494935","1","1","experiment","2","dispFeedback_noU","1000","1","73","CEVR","POS","1","168","0.2226999140154772017","37.4453998280309505731","168","0.7283885173332850238","73","35","25","0","0","0","0","1","36","1","5","29","0","485","168","10","10"
"6.6.1","mac","0","2023-02-23","18:09:07","420494935","1","1","experiment","2","experiment_noU","1110","1","59","CEVR","POS","1","","","","","","59","35","25","0","0","0","0","1","36","1","5","29","0","485","168","10","10"
"6.6.1","mac","0","2023-02-23","18:09:07","420494935","1","1","experiment","2","dispFeedback_noU","1000","1","59","CEVR","POS","1","171","0.2161936560934891449","37","171","0.9425456230394880786","59","35","25","0","0","0","0","1","36","2","5","29","0","310","339","20","10"
"6.6.1","mac","0","2023-02-23","18:09:07","420494935","1","1","experiment","2","experiment_noU","1852","1","46","CEVR","POS","1","","","","","","46","35","25","0","0","0","0","1","36","2","5","29","0","310","339","20","10"
"6.6.1","mac","0","2023-02-23","18:09:07","420494935","1","1","experiment","2","dispFeedback_noU","1000","1","46","CEVR","POS","1","165","0.2195659545608680818","36.1217361817565247861","165","0.3584917083751623657","46","35","25","0","0","0","0","1","36","3","5","29","0","402","504","30","10"
"6.6.1","mac","0","2023-02-23","18:09:07","420494935","1","1","experiment","2","experiment_noU","2517","1","33","CEVR","POS","1","","","","","","33","35","25","0","0","0","0","1","36","3","5","29","0","402","504","30","10"
"6.6.1","mac","0","2023-02-23","18:09:07","420494935","1","1","experiment","2","dispFeedback_noU","1000","1","33","CEVR","POS","1","169","0.2201257861635220192","37.2201257861635212976","169","0.2670051982316666295","33","35","25","0","0","0","0","1","36","4","5","29","0","417","673","40","10"
"6.6.1","mac","0","2023-02-23","18:09:07","420494935","1","1","experiment","2","experiment_noU","3981","1","2","CEVR","POS","1","","","","","","2","35","25","0","0","0","0","1","36","4","5","29","0","417","673","40","10"
"6.6.1","mac","0","2023-02-23","18:09:07","420494935","1","1","experiment","2","dispFeedback_noU","1000","1","2","CEVR","POS","1","170","0.216954263695761429","36.78304573630423846","170","0.7471077411312394556","2","35","25","0","0","0","0","1","36","5","5","29","1","331","843","50","10"
"6.6.1","mac","0","2023-02-23","18:09:07","420494935","1","1","experiment","2","experiment_U","1287","1","57","CEVR","POS","1","","","","","","57","35","25","0","0","0","0","1","36","5","5","29","1","331","843","50","10"
"6.6.1","mac","0","2023-02-23","18:09:07","420494935","1","1","experiment","2","dispFeedback_U","1000","1","57","CEVR","POS","1","167","0.219008963301200732","36.5619820733976013116","167","0.3025394911650893248","57","35","25","0","0","1","0","1","36","6","5","29","1","387","1010","60","10"
"6.6.1","mac","0","2023-02-23","18:09:07","420494935","1","1","experiment","2","experiment_U","801","1","69","CEVR","POS","1","","","","","","69","35","25","0","0","1","0","1","36","6","5","29","1","387","1010","60","10"
"6.6.1","mac","0","2023-02-23","18:09:07","420494935","1","1","experiment","2","dispFeedback_U","1000","1","69","CEVR","POS","1","169","0.2233143645456113213","37.669943093636831577","169","0.0534749978812120372","69","35","25","0","0","2","0","1","36","7","5","29","1","501","1179","70","10"
"6.6.1","mac","0","2023-02-23","18:09:07","420494935","1","1","experiment","2","experiment_U","661","1","72","CEVR","POS","1","","","","","","72","35","25","0","0","2","0","1","36","7","5","29","1","501","1179","70","10"
"6.6.1","mac","0","2023-02-23","18:09:07","420494935","1","1","experiment","2","dispFeedback_U","1000","1","72","CEVR","POS","1","169","0.2237001209189842799","37.8948004836759295699","169","0.1336623090630542354","72","35","25","0","0","3","0","1","36","8","5","29","1","511","1348","80","10"
"6.6.1","mac","0","2023-02-23","18:09:07","420494935","1","1","experiment","2","experiment_U","2707","1","33","CEVR","POS","1","","","","","","33","35","25","0","0","3","0","1","36","8","5","29","1","511","1348","80","10"
"6.6.1","mac","0","2023-02-23","18:09:07","420494935","1","1","experiment","2","dispFeedback_U","1000","1","33","CEVR","POS","1","165","0.2274723344458106367","37.4549446688916205517","165","0.6774154421122314806","33","35","25","0","0","4","0","1","36","9","5","29","1","607","1513","90","10"
"6.6.1","mac","0","2023-02-23","18:09:07","420494935","1","1","experiment","2","experiment_U","4084","1","2","CEVR","POS","1","","","","","","2","35","25","0","0","4","0","1","36","9","5","29","1","607","1513","90","10"
"6.6.1","mac","0","2023-02-23","18:09:07","420494935","1","1","experiment","2","dispFeedback_U","1000","1","2","CEVR","POS","1","164","0.2207637231503579989","36.1169451073985641187","164","0.2671756614621672021","2","35","25","0","0","5","0","1","36","10","5","29","1","434","1677","100","10"
"6.6.1","mac","0","2023-02-23","18:09:07","420494935","1","1","experiment","2","experiment_U","3467","1","16","CEVR","POS","1","","","","","","16","35","25","0","0","5","0","1","36","10","5","29","1","434","1677","100","10"
"6.6.1","mac","0","2023-02-23","18:09:07","420494935","1","1","experiment","2","dispFeedback_U","1000","1","16","CEVR","POS","1","167","0.2239322151132630279","37.4478644302265308852","167","0.6494619491625255314","16","35","25","0","0","6","0","1","36","11","5","29","1","517","1844","110","10"
"6.6.1","mac","0","2023-02-23","18:09:07","420494935","1","1","experiment","2","experiment_U","3139","1","25","CEVR","POS","1","","","","","","25","35","25","0","0","6","0","1","36","11","5","29","1","517","1844","110","10"
"6.6.1","mac","0","2023-02-23","18:09:07","420494935","1","1","experiment","2","dispFeedback_U","1000","1","25","CEVR","POS","1","166","0.2287581699346405151","37.9150326797385588407","166","0.4772064430818908076","25","35","25","0","0","7","0","1","36","12","5","29","1","639","2010","120","10"
"6.6.1","mac","0","2023-02-23","18:09:07","420494935","1","1","experiment","2","experiment_U","1459","1","57","CEVR","POS","1","","","","","","57","35","25","0","0","7","0","1","36","12","5","29","1","639","2010","120","10"
"6.6.1","mac","0","2023-02-23","18:09:07","420494935","1","1","experiment","2","dispFeedback_U","1000","1","57","CEVR","POS","1","167","0.2255704581083435023","37.6767113743250376956","167","0.4854581773945731427","57","35","25","0","0","8","0","1","36","13","5","29","1","559","2177","130","10"
"6.6.1","mac","0","2023-02-23","18:09:07","420494935","1","1","experiment","2","experiment_U","5986","1","70","CEVR","POS","1","","","","","","70","35","25","0","0","8","0","1","36","13","5","29","1","559","2177","130","10"
"6.6.1","mac","0","2023-02-23","18:09:07","420494935","1","1","experiment","2","dispFeedback_U","1000","1","70","CEVR","POS","1","158","0.232746225736879947","36.7672537742631178048","158","0.167279007185082651","70","35","25","0","0","9","0","1","36","14","5","29","1","736","2335","140","10"
"6.6.1","mac","0","2023-02-23","18:09:07","420494935","1","1","experiment","2","experiment_U","3398","1","19","CEVR","POS","1","","","","","","19","35","25","0","0","9","0","1","36","14","5","29","1","736","2335","140","10"
"6.6.1","mac","0","2023-02-23","18:09:07","420494935","1","1","experiment","2","dispFeedback_U","1000","1","19","CEVR","POS","1","161","0.2271132935811995823","36.5457734128375975047","161","0.5645675711716915401","19","35","25","0","0","10","0","1","36","15","5","29","1","598","2496","150","10"
"6.6.1","mac","0","2023-02-23","18:09:07","420494935","1","1","experiment","2","experiment_U","4095","1","5","CEVR","POS","1","","","","","","5","35","25","0","0","10","0","1","36","15","5","29","1","598","2496","150","10"
"6.6.1","mac","0","2023-02-23","18:09:07","420494935","1","1","experiment","2","dispFeedback_U","1000","1","5","CEVR","POS","1","166","0.2269938650306748407","37.6809815950920210526","166","0.2536152466790785875","5","35","25","0","0","11","0","1","36","16","5","29","1","595","2662","160","10"
"6.6.1","mac","0","2023-02-23","18:09:07","420494935","1","1","experiment","2","experiment_U","5589","1","79","CEVR","POS","1","","","","","","79","35","25","0","0","11","0","1","36","16","5","29","1","595","2662","160","10"
"6.6.1","mac","0","2023-02-23","18:09:07","420494935","1","1","experiment","2","dispFeedback_U","1000","1","79","CEVR","POS","1","153","0.2349845763019415557","36.06006169479223189","153","0.6738535053268664976","79","35","25","0","0","12","0","1","36","17","5","29","1","789","2815","170","10"
"6.6.1","mac","0","2023-02-23","18:09:07","420494935","1","1","experiment","2","experiment_U","1680","1","56","CEVR","POS","1","","","","","","56","35","25","0","0","12","0","1","36","17","5","29","1","789","2815","170","10"
"6.6.1","mac","0","2023-02-23","18:09:07","420494935","1","1","experiment","2","dispFeedback_U","1000","1","56","CEVR","POS","1","155","0.2324955116696588997","36.070017953321368509","155","0.6855281916646119855","56","35","25","0","0","13","0","1","36","18","5","29","1","730","2970","180","10"
"6.6.1","mac","0","2023-02-23","18:09:07","420494935","1","1","experiment","2","experiment_U","2839","1","34","CEVR","POS","1","","","","","","34","35","25","0","0","13","0","1","36","18","5","29","1","730","2970","180","10"
"6.6.1","mac","0","2023-02-23","18:09:07","420494935","1","1","experiment","2","dispFeedback_U","1000","1","34","CEVR","POS","1","156","0.2349845763019415557","36.7650154236980526434","156","0.5193489851707939753","34","35","25","0","0","14","0","1","36","19","5","29","1","789","3126","190","10"
"6.6.1","mac","0","2023-02-23","18:09:07","420494935","1","1","experiment","2","experiment_U","5902","1","73","CEVR","POS","1","","","","","","73","35","25","0","0","14","0","1","36","19","5","29","1","789","3126","190","10"
"6.6.1","mac","0","2023-02-23","18:09:07","420494935","1","1","experiment","2","dispFeedback_U","1000","1","73","CEVR","POS","1","160","0.235540196435067295","37.7066205893051957787","160","0.7752503794094665057","73","35","25","0","0","15","0","1","36","20","5","29","0","802","3286","200","10"
"6.6.1","mac","0","2023-02-23","18:09:07","420494935","1","1","experiment","2","experiment_noU","4820","1","93","CEVR","POS","1","","","","","","93","35","25","0","0","15","0","1","36","20","5","29","0","802","3286","200","10"
"6.6.1","mac","0","2023-02-23","18:09:07","420494935","1","1","experiment","2","dispFeedback_noU","1000","1","93","CEVR","POS","1","161","0.2320788530465949795","37.4641577060931965093","161","0.9607269710304044974","93","35","25","0","0","15","0","1","36","21","5","29","0","720","3447","210","10"
"6.6.1","mac","0","2023-02-23","18:09:07","420494935","1","1","experiment","2","experiment_noU","4483","1","0","CEVR","POS","1","","","","","","0","35","25","0","0","15","0","1","36","21","5","29","0","720","3447","210","10"
"6.6.1","mac","0","2023-02-23","18:09:07","420494935","1","1","experiment","2","dispFeedback_noU","1000","1","0","CEVR","POS","1","161","0.2326208011496317674","37.4652416022992653666","161","0.2340951969926467202","0","35","25","0","0","15","0","1","36","22","5","29","0","733","3608","220","10"
"6.6.1","mac","0","2023-02-23","18:09:07","420494935","1","1","experiment","2","experiment_noU","3637","1","18","CEVR","POS","1","","","","","","18","35","25","0","0","15","0","1","36","22","5","29","0","733","3608","220","10"
"6.6.1","mac","0","2023-02-23","18:09:07","420494935","1","1","experiment","2","dispFeedback_noU","1000","1","18","CEVR","POS","1","158","0.2348993288590603967","37","158","0.1416126475999161249","18","35","25","0","0","15","0","1","36","23","5","29","0","787","3766","230","10"
"6.6.1","mac","0","2023-02-23","18:09:07","420494935","1","1","experiment","2","experiment_noU","2926","1","30","CEVR","POS","1","","","","","","30","35","25","0","0","15","0","1","36","23","5","29","0","787","3766","230","10"
"6.6.1","mac","0","2023-02-23","18:09:07","420494935","1","1","experiment","2","dispFeedback_noU","1000","1","30","CEVR","POS","1","163","0.2302631578947368363","37.4605263157894725623","163","0.9192669172583303183","30","35","25","0","0","15","0","1","36","24","5","29","0","676","3929","240","10"
"6.6.1","mac","0","2023-02-23","18:09:07","420494935","1","1","experiment","2","experiment_noU","5259","1","84","CEVR","POS","1","","","","","","84","35","25","0","0","15","0","1","36","24","5","29","0","676","3929","240","10"
"6.6.1","mac","0","2023-02-23","18:09:07","420494935","1","1","experiment","2","dispFeedback_noU","1000","1","84","CEVR","POS","1","156","0.2316222500447147337","36.0735109998211385118","156","0.1645294344435747347","84","35","25","0","0","15","0","1","36","25","5","29","0","709","4085","250","10"
"6.6.1","mac","0","2023-02-23","18:09:07","420494935","1","1","experiment","2","experiment_noU","4762","1","99","CEVR","POS","1","","","","","","99","35","25","0","0","15","0","1","36","25","5","29","0","709","4085","250","10"
"6.6.1","mac","0","2023-02-23","18:09:07","420494935","1","1","experiment","2","dispFeedback_noU","1000","1","99","CEVR","POS","1","150","0.2426002248032971265","36.2721993255901082875","150","0.7585064221076914803","99","35","25","0","0","15","0","1","36","26","5","29","0","962","4235","260","10"
"6.6.1","mac","0","2023-02-23","18:09:07","420494935","1","1","experiment","2","experiment_noU","3059","1","32","CEVR","POS","1","","","","","","32","35","25","0","0","15","0","1","36","26","5","29","0","962","4235","260","10"
"6.6.1","mac","0","2023-02-23","18:09:07","420494935","1","1","experiment","2","dispFeedback_noU","1000","1","32","CEVR","POS","1","157","0.240215173437210161","37.7206455203116348684","157","0.9556678826817469607","32","35","25","0","0","15","0","1","36","27","5","29","0","909","4392","270","10"
"6.6.1","mac","0","2023-02-23","18:09:07","420494935","1","1","experiment","2","experiment_noU","3034","1","28","CEVR","POS","1","","","","","","28","35","25","0","0","15","0","1","36","27","5","29","0","909","4392","270","10"
"6.6.1","mac","0","2023-02-23","18:09:07","420494935","1","1","experiment","2","dispFeedback_noU","1000","1","28","CEVR","POS","1","155","0.2305911680911680861","35.8470441595441613458","155","0.3212808338741959813","28","35","25","0","0","15","0","1","36","28","5","29","0","684","4547","280","10"
"6.6.1","mac","0","2023-02-23","18:09:07","420494935","1","1","experiment","2","experiment_noU","6099","1","68","CEVR","POS","1","","","","","","68","35","25","0","0","15","0","1","36","28","5","29","0","684","4547","280","10"
"6.6.1","mac","0","2023-02-23","18:09:07","420494935","1","1","experiment","2","dispFeedback_noU","1000","1","68","CEVR","POS","1","156","0.2332912988650693853","36.3001261034047928433","156","0.0978159888409581013","68","35","25","0","0","15","0","1","36","29","5","29","2","749","4703","290","10"
"6.6.1","mac","0","2023-02-23","18:09:07","420494935","1","1","experiment","2","experiment_U","1063","1","67","CEVR","POS","1","","","","","","67","35","25","0","0","15","0","1","36","29","5","29","2","749","4703","290","10"
"6.6.1","mac","0","2023-02-23","18:09:07","420494935","1","1","experiment","2","dispFeedback_U","1000","1","67","CEVR","POS","1","158","0.2297321270179173425","36.3108036189462453081","158","0.2639967636819921526","67","35","25","0","0","15","1","1","36","30","5","29","2","663","4861","300","10"
"6.6.1","mac","0","2023-02-23","18:09:07","420494935","1","1","experiment","2","experiment_U","4867","1","95","CEVR","POS","1","","","","","","95","35","25","0","0","15","1","1","36","30","5","29","2","663","4861","300","10"
"6.6.1","mac","0","2023-02-23","18:09:07","420494935","1","1","experiment","2","dispFeedback_U","1000","1","95","CEVR","POS","1","158","0.2383581814835266099","37.7150745444505801629","158","0.9172720946178939405","95","35","25","0","0","15","2","1","36","31","5","29","2","867","5019","310","10"
"6.6.1","mac","0","2023-02-23","18:09:07","420494935","1","1","experiment","2","experiment_U","3479","1","22","CEVR","POS","1","","","","","","22","35","25","0","0","15","2","1","36","31","5","29","2","867","5019","310","10"
"6.6.1","mac","0","2023-02-23","18:09:07","420494935","1","1","experiment","2","dispFeedback_U","1000","1","22","CEVR","POS","1","153","0.2367026137817583864","36.2898921586547302809","153","0.1237450330806302429","22","35","25","0","0","15","3","1","36","32","5","29","2","829","5172","320","10"
"6.6.1","mac","0","2023-02-23","18:09:07","420494935","1","1","experiment","2","experiment_U","3534","1","21","CEVR","POS","1","","","","","","21","35","25","0","0","15","3","1","36","32","5","29","2","829","5172","320","10"
"6.6.1","mac","0","2023-02-23","18:09:07","420494935","1","1","experiment","2","dispFeedback_U","1000","1","21","CEVR","POS","1","156","0.2369191364800585509","37","156","0.3375671138841582208","21","35","25","0","0","15","4","1","36","33","5","29","2","834","5328","330","10"
"6.6.1","mac","0","2023-02-23","18:09:07","420494935","1","1","experiment","2","experiment_U","1978","1","53","CEVR","POS","1","","","","","","53","35","25","0","0","15","4","1","36","33","5","29","2","834","5328","330","10"
"6.6.1","mac","0","2023-02-23","18:09:07","420494935","1","1","experiment","2","dispFeedback_U","1000","1","53","CEVR","POS","1","151","0.2388417558096643245","36.0446329767613420358","151","0.3430471020618097722","53","35","25","0","0","15","5","1","36","34","5","29","2","878","5479","340","10"
"6.6.1","mac","0","2023-02-23","18:09:07","420494935","1","1","experiment","2","experiment_U","2275","1","45","CEVR","POS","1","","","","","","45","35","25","0","0","15","5","1","36","34","5","29","2","878","5479","340","10"
"6.6.1","mac","0","2023-02-23","18:09:07","420494935","1","1","experiment","2","dispFeedback_U","1000","1","45","CEVR","POS","1","158","0.2343891402714931849","37","158","0.8561611864380913595","45","35","25","0","0","15","6","1","36","35","5","29","2","775","5637","350","10"
"6.6.1","mac","0","2023-02-23","18:09:07","420494935","1","1","experiment","2","experiment_U","596","1","80","CEVR","POS","1","","","","","","80","35","25","0","0","15","6","1","36","35","5","29","2","775","5637","350","10"
"6.6.1","mac","0","2023-02-23","18:09:07","420494935","1","1","experiment","2","dispFeedback_U","1000","1","80","CEVR","POS","1","154","0.2374404107077374426","36.5251191785845250593","154","0.4037510965493859572","80","35","25","0","0","15","7","1","36","36","5","29","2","846","5791","360","10"
"6.6.1","mac","0","2023-02-23","18:09:07","420494935","1","1","experiment","3","experiment_noU","3856","1","13","DEV","POS","1","","","","","","13","45","50","0","0","0","0","2","34","0","7","28","2","846","5791","360","10"
"6.6.1","mac","0","2023-02-23","18:09:07","420494935","1","1","experiment","3","dispFeedback_noU","1000","1","13","DEV","POS","1","76","0.7014454363344961862","53.193751517402574791","76","0.1912530139533926421","13","45","50","0","0","0","0","2","34","1","7","28","0","756","5867","366","6"
"6.6.1","mac","0","2023-02-23","18:09:07","420494935","1","1","experiment","3","experiment_noU","4446","1","3","DEV","POS","1","","","","","","3","45","50","0","0","0","0","2","34","1","7","28","0","756","5867","366","6"
"6.6.1","mac","0","2023-02-23","18:09:07","420494935","1","1","experiment","3","dispFeedback_noU","1000","1","3","DEV","POS","1","72","0.6804105502556969665","49.2850362631070808561","72","0.2457937782736946408","3","45","50","0","0","0","0","2","34","2","7","28","0","846","5939","371","5"
"6.6.1","mac","0","2023-02-23","18:09:07","420494935","1","1","experiment","3","experiment_noU","4006","1","3","DEV","POS","1","","","","","","3","45","50","0","0","0","0","2","34","2","7","28","0","846","5939","371","5"
"6.6.1","mac","0","2023-02-23","18:09:07","420494935","1","1","experiment","3","dispFeedback_noU","1000","1","3","DEV","POS","1","66","0.7888825176120399796","52.1333420569328183092","66","0.7490882307172492816","3","45","50","0","0","0","0","2","34","3","7","28","0","406","6005","376","5"
"6.6.1","mac","0","2023-02-23","18:09:07","420494935","1","1","experiment","3","experiment_noU","754","1","95","DEV","POS","1","","","","","","95","45","50","0","0","0","0","2","34","3","7","28","0","406","6005","376","5"
"6.6.1","mac","0","2023-02-23","18:09:07","420494935","1","1","experiment","3","dispFeedback_noU","1000","1","95","DEV","POS","1","74","0.5045825050508367937","37.3667293750957583143","74","0.5073027141642064697","95","45","50","0","0","0","0","2","34","4","7","28","0","1754","6079","381","5"
"6.6.1","mac","0","2023-02-23","18:09:07","420494935","1","1","experiment","3","experiment_noU","2930","1","87","DEV","POS","1","","","","","","87","45","50","0","0","0","0","2","34","4","7","28","0","1754","6079","381","5"
"6.6.1","mac","0","2023-02-23","18:09:07","420494935","1","1","experiment","3","dispFeedback_noU","1000","1","87","DEV","POS","1","79","0.3167896215170770691","25.1846395528658923979","79","0.3605558435340774914","87","45","50","0","0","0","0","2","34","5","7","28","0","3530","6158","387","6"
"6.6.1","mac","0","2023-02-23","18:09:07","420494935","1","1","experiment","3","experiment_noU","3646","1","96","DEV","POS","1","","","","","","96","45","50","0","0","0","0","2","34","5","7","28","0","3530","6158","387","6"
"6.6.1","mac","0","2023-02-23","18:09:07","420494935","1","1","experiment","3","dispFeedback_noU","1000","1","96","DEV","POS","1","84","0.218267194228149719","18.3200675294357218093","84","0.7605132990890446365","96","45","50","0","0","0","0","2","34","6","7","28","0","4696","6242","393","6"
"6.6.1","mac","0","2023-02-23","18:09:07","420494935","1","1","experiment","3","experiment_noU","1030","1","58","DEV","POS","1","","","","","","58","45","50","0","0","0","0","2","34","6","7","28","0","4696","6242","393","6"
"6.6.1","mac","0","2023-02-23","18:09:07","420494935","1","1","experiment","3","dispFeedback_noU","1000","1","58","DEV","POS","1","64","0.8496185330205104913","54.2049989181199123323","64","0.3126777674333839352","58","45","50","0","0","0","0","2","34","7","7","28","1","180","6306","398","5"
"6.6.1","mac","0","2023-02-23","18:09:07","420494935","1","1","experiment","3","experiment_U","1054","1","99","DEV","POS","1","","","","","","99","45","50","0","0","0","0","2","34","7","7","28","1","180","6306","398","5"
"6.6.1","mac","0","2023-02-23","18:09:07","420494935","1","1","experiment","3","dispFeedback_U","1000","1","99","DEV","POS","1","83","0.435222673586278308","36.0839439432442290467","83","0.5894618703959187966","99","45","50","0","0","1","0","2","34","8","7","28","1","2254","6389","404","6"
"6.6.1","mac","0","2023-02-23","18:09:07","420494935","1","1","experiment","3","experiment_U","1334","1","63","DEV","POS","1","","","","","","63","45","50","0","0","1","0","2","34","8","7","28","1","2254","6389","404","6"
"6.6.1","mac","0","2023-02-23","18:09:07","420494935","1","1","experiment","3","dispFeedback_U","1000","1","63","DEV","POS","1","69","0.7066811598292039864","48.5364381055868108206","69","0.8519718425469406942","63","45","50","1","0","2","0","2","34","9","7","28","1","734","6458","409","5"
"6.6.1","mac","0","2023-02-23","18:09:07","420494935","1","1","experiment","3","experiment_U","590","1","8","DEV","POS","1","","","","","","8","45","50","1","0","2","0","2","34","9","7","28","1","734","6458","409","5"
"6.6.1","mac","0","2023-02-23","18:09:07","420494935","1","1","experiment","3","dispFeedback_U","1000","1","8","DEV","POS","1","81","0.4369305380898591551","35.3309236350848934194","81","0.6966322075334918651","8","45","50","1","0","3","0","2","34","10","7","28","1","2240","6539","415","6"
"6.6.1","mac","0","2023-02-23","18:09:07","420494935","1","1","experiment","3","experiment_U","1219","1","80","DEV","POS","1","","","","","","80","45","50","1","0","3","0","2","34","10","7","28","1","2240","6539","415","6"
"6.6.1","mac","0","2023-02-23","18:09:07","420494935","1","1","experiment","3","dispFeedback_U","1000","1","80","DEV","POS","1","78","0.5525602128460859186","43.0003546239531644346","78","0.840795994000694713","80","45","50","1","0","4","0","2","34","11","7","28","1","1469","6617","421","6"
"6.6.1","mac","0","2023-02-23","18:09:07","420494935","1","1","experiment","3","experiment_U","710","1","9","DEV","POS","1","","","","","","9","45","50","1","0","4","0","2","34","11","7","28","1","1469","6617","421","6"
"6.6.1","mac","0","2023-02-23","18:09:07","420494935","1","1","experiment","3","dispFeedback_U","1000","1","9","DEV","POS","1","85","0.4170077846455745307","35.6223812754239119727","85","0.9184824391078395545","9","45","50","1","0","5","0","2","34","12","7","28","1","2410","6702","427","6"
"6.6.1","mac","0","2023-02-23","18:09:07","420494935","1","1","experiment","3","experiment_U","524","1","55","DEV","POS","1","","","","","","55","45","50","1","0","5","0","2","34","12","7","28","1","2410","6702","427","6"
"6.6.1","mac","0","2023-02-23","18:09:07","420494935","1","1","experiment","3","dispFeedback_U","1000","1","55","DEV","POS","1","82","0.2350256400758937714","19.1804863681281645427","82","0.6643434527014250301","55","45","50","1","0","6","0","2","34","13","7","28","1","4524","6784","433","6"
"6.6.1","mac","0","2023-02-23","18:09:07","420494935","1","1","experiment","3","experiment_U","536","1","79","DEV","POS","1","","","","","","79","45","50","1","0","6","0","2","34","13","7","28","1","4524","6784","433","6"
"6.6.1","mac","0","2023-02-23","18:09:07","420494935","1","1","experiment","3","dispFeedback_U","1000","1","79","DEV","POS","1","69","0.7062036786656530341","48.5134861959647594176","69","0.8516767818601049811","79","45","50","2","0","7","0","2","34","14","7","28","1","736","6853","438","5"
"6.6.1","mac","0","2023-02-23","18:09:07","420494935","1","1","experiment","3","experiment_U","2261","1","56","DEV","POS","1","","","","","","56","45","50","2","0","7","0","2","34","14","7","28","1","736","6853","438","5"
"6.6.1","mac","0","2023-02-23","18:09:07","420494935","1","1","experiment","3","dispFeedback_U","1000","1","56","DEV","POS","1","78","0.5819877986749559806","45.4322221257772156378","78","0.4069388952122393044","56","45","50","2","0","8","0","2","34","15","7","28","1","1311","6931","444","6"
"6.6.1","mac","0","2023-02-23","18:09:07","420494935","1","1","experiment","3","experiment_U","1422","1","86","DEV","POS","1","","","","","","86","45","50","2","0","8","0","2","34","15","7","28","1","1311","6931","444","6"
"6.6.1","mac","0","2023-02-23","18:09:07","420494935","1","1","experiment","3","dispFeedback_U","1000","1","86","DEV","POS","1","84","0.4721425852300975556","39.6155132949924180252","84","0.8580620425888482172","86","45","50","2","0","9","0","2","34","16","7","28","1","1972","7015","450","6"
"6.6.1","mac","0","2023-02-23","18:09:07","420494935","1","1","experiment","3","experiment_U","1499","1","45","DEV","POS","1","","","","","","45","45","50","2","0","9","0","2","34","16","7","28","1","1972","7015","450","6"
"6.6.1","mac","0","2023-02-23","18:09:07","420494935","1","1","experiment","3","dispFeedback_U","1000","1","45","DEV","POS","1","81","0.1858279484873328613","15.1413467232975698096","81","0.5066616913552074442","45","45","50","2","0","10","0","2","34","17","7","28","1","4999","7096","456","6"
"6.6.1","mac","0","2023-02-23","18:09:07","420494935","1","1","experiment","3","experiment_U","3507","1","53","DEV","POS","1","","","","","","53","45","50","2","0","10","0","2","34","17","7","28","1","4999","7096","456","6"
"6.6.1","mac","0","2023-02-23","18:09:07","420494935","1","1","experiment","3","dispFeedback_U","1000","1","53","DEV","POS","1","82","0.4173444432365376322","34.3950788215305465201","82","0.3225366236461644776","53","45","50","2","0","11","0","2","34","18","7","28","1","2407","7178","462","6"
"6.6.1","mac","0","2023-02-23","18:09:07","420494935","1","1","experiment","3","experiment_U","3332","1","72","DEV","POS","1","","","","","","72","45","50","2","0","11","0","2","34","18","7","28","1","2407","7178","462","6"
"6.6.1","mac","0","2023-02-23","18:09:07","420494935","1","1","experiment","3","dispFeedback_U","1000","1","72","DEV","POS","1","88","0.3441398367002238556","30.1607792635317366603","88","0.0618983958991939226","72","45","50","2","0","12","0","2","34","19","7","28","1","3182","7266","468","6"
"6.6.1","mac","0","2023-02-23","18:09:07","420494935","1","1","experiment","3","experiment_U","1813","1","15","DEV","POS","1","","","","","","15","45","50","2","0","12","0","2","34","19","7","28","1","3182","7266","468","6"
"6.6.1","mac","0","2023-02-23","18:09:07","420494935","1","1","experiment","3","dispFeedback_U","1000","1","15","DEV","POS","1","85","0.2950141559172765882","25.1196216658411053402","85","0.569415176187040073","15","45","50","2","0","13","0","2","34","20","7","28","1","3813","7351","474","6"
"6.6.1","mac","0","2023-02-23","18:09:07","420494935","1","1","experiment","3","experiment_U","3041","1","2","DEV","POS","1","","","","","","2","45","50","2","0","13","0","2","34","20","7","28","1","3813","7351","474","6"
"6.6.1","mac","0","2023-02-23","18:09:07","420494935","1","1","experiment","3","dispFeedback_U","1000","1","2","DEV","POS","1","89","0.2472580160900897384","22.0930713280742949678","89","0.6777676806500572138","2","45","50","2","0","14","0","2","34","21","7","28","1","4391","7440","481","7"
"6.6.1","mac","0","2023-02-23","18:09:07","420494935","1","1","experiment","3","experiment_U","2367","1","21","DEV","POS","1","","","","","","21","45","50","2","0","14","0","2","34","21","7","28","1","4391","7440","481","7"
"6.6.1","mac","0","2023-02-23","18:09:07","420494935","1","1","experiment","3","dispFeedback_U","1000","1","21","DEV","POS","1","82","0.2211719556148805665","18.1096136301665389112","82","0.8222146632201537964","21","45","50","2","0","15","0","2","34","22","7","28","1","4667","7522","487","6"
"6.6.1","mac","0","2023-02-23","18:09:07","420494935","1","1","experiment","3","experiment_U","3571","1","1","DEV","POS","1","","","","","","1","45","50","2","0","15","0","2","34","22","7","28","1","4667","7522","487","6"
"6.6.1","mac","0","2023-02-23","18:09:07","420494935","1","1","experiment","3","dispFeedback_U","1000","1","1","DEV","POS","1","88","0.2000107825946912665","17.6516112995895255722","88","0.2240518513657273336","1","45","50","2","0","16","0","2","34","23","7","28","1","4871","7610","493","6"
"6.6.1","mac","0","2023-02-23","18:09:07","420494935","1","1","experiment","3","experiment_U","2549","1","3","DEV","POS","1","","","","","","3","45","50","2","0","16","0","2","34","23","7","28","1","4871","7610","493","6"
"6.6.1","mac","0","2023-02-23","18:09:07","420494935","1","1","experiment","3","dispFeedback_U","1000","1","3","DEV","POS","1","87","0.2843531643808953069","24.8649992099350356511","87","0.4213608404205554936","3","45","50","2","0","17","0","2","34","24","7","28","0","3949","7697","499","6"
"6.6.1","mac","0","2023-02-23","18:09:07","420494935","1","1","experiment","3","experiment_noU","2015","1","25","DEV","POS","1","","","","","","25","45","50","2","0","17","0","2","34","24","7","28","0","3949","7697","499","6"
"6.6.1","mac","0","2023-02-23","18:09:07","420494935","1","1","experiment","3","dispFeedback_noU","1000","1","25","DEV","POS","1","86","0.2358724559771186446","20.1890178387798187032","86","0.5570764489371973216","25","45","50","2","0","17","0","2","34","25","7","28","0","4515","7783","505","6"
"6.6.1","mac","0","2023-02-23","18:09:07","420494935","1","1","experiment","3","experiment_noU","1538","1","53","DEV","POS","1","","","","","","53","45","50","2","0","17","0","2","34","25","7","28","0","4515","7783","505","6"
"6.6.1","mac","0","2023-02-23","18:09:07","420494935","1","1","experiment","3","dispFeedback_noU","1000","1","53","DEV","POS","1","69","0.7805372750830521511","54.1460863154311127232","69","0.0590602154981019478","53","45","50","2","0","17","0","2","34","26","7","28","0","438","7852","510","5"
"6.6.1","mac","0","2023-02-23","18:09:07","420494935","1","1","experiment","3","experiment_noU","1870","1","62","DEV","POS","1","","","","","","62","45","50","2","0","17","0","2","34","26","7","28","0","438","7852","510","5"
"6.6.1","mac","0","2023-02-23","18:09:07","420494935","1","1","experiment","3","dispFeedback_noU","1000","1","62","DEV","POS","1","76","0.5998657573739625271","45.3503339395841749138","76","0.9131976582373486639","62","45","50","2","0","17","0","2","34","27","7","28","0","1220","7928","516","6"
"6.6.1","mac","0","2023-02-23","18:09:07","420494935","1","1","experiment","3","experiment_noU","1347","1","26","DEV","POS","1","","","","","","26","45","50","2","0","17","0","2","34","27","7","28","0","1220","7928","516","6"
"6.6.1","mac","0","2023-02-23","18:09:07","420494935","1","1","experiment","3","dispFeedback_noU","1000","1","26","DEV","POS","1","85","0.2884565285329412365","24.6144547904120898352","85","0.1541991967601234192","26","45","50","2","0","17","0","2","34","28","7","28","2","3897","8013","522","6"
"6.6.1","mac","0","2023-02-23","18:09:07","420494935","1","1","experiment","3","experiment_U","958","1","85","DEV","POS","1","","","","","","85","45","50","2","0","17","0","2","34","28","7","28","2","3897","8013","522","6"
"6.6.1","mac","0","2023-02-23","18:09:07","420494935","1","1","experiment","3","dispFeedback_U","1000","1","85","DEV","POS","1","78","0.5545428771157446812","43.1264509999026586229","78","0.2569704361392581848","85","45","50","2","0","17","1","2","34","29","7","28","2","1458","8091","528","6"
"6.6.1","mac","0","2023-02-23","18:09:07","420494935","1","1","experiment","3","experiment_U","687","1","11","DEV","POS","1","","","","","","11","45","50","2","0","17","1","2","34","29","7","28","2","1458","8091","528","6"
"6.6.1","mac","0","2023-02-23","18:09:07","420494935","1","1","experiment","3","dispFeedback_U","1000","1","11","DEV","POS","1","78","0.4085402570772191932","31.730648960284828064","78","0.3305242900574869025","11","45","50","2","0","17","2","2","34","30","7","28","2","2487","8169","534","6"
"6.6.1","mac","0","2023-02-23","18:09:07","420494935","1","1","experiment","3","experiment_U","2369","1","16","DEV","POS","1","","","","","","16","45","50","2","0","17","2","2","34","30","7","28","2","2487","8169","534","6"
"6.6.1","mac","0","2023-02-23","18:09:07","420494935","1","1","experiment","3","dispFeedback_U","1000","1","16","DEV","POS","1","85","0.2447316119948768631","20.9018279938559992104","85","0.233716259997737652","16","45","50","2","0","17","3","2","34","31","7","28","2","4419","8254","540","6"
"6.6.1","mac","0","2023-02-23","18:09:07","420494935","1","1","experiment","3","experiment_U","3739","1","85","DEV","POS","1","","","","","","85","45","50","2","0","17","3","2","34","31","7","28","2","4419","8254","540","6"
"6.6.1","mac","0","2023-02-23","18:09:07","420494935","1","1","experiment","3","dispFeedback_U","1000","1","85","DEV","POS","1","89","0.2605591424692252356","23.2025783966909564526","89","0.9996766766998164133","85","45","50","2","0","17","4","2","34","32","7","28","2","4239","8343","547","7"
"6.6.1","mac","0","2023-02-23","18:09:07","420494935","1","1","experiment","3","experiment_U","1147","1","36","DEV","POS","1","","","","","","36","45","50","2","0","17","4","2","34","32","7","28","2","4239","8343","547","7"
"6.6.1","mac","0","2023-02-23","18:09:07","420494935","1","1","experiment","3","dispFeedback_U","1000","1","36","DEV","POS","1","90","0.2641214318429439545","23.7613625241605035399","90","0.5306698459970461412","36","45","50","2","0","17","5","2","34","33","7","28","2","4197","8433","554","7"
"6.6.1","mac","0","2023-02-23","18:09:07","420494935","1","1","experiment","3","experiment_U","3376","1","91","DEV","POS","1","","","","","","91","45","50","2","0","17","5","2","34","33","7","28","2","4197","8433","554","7"
"6.6.1","mac","0","2023-02-23","18:09:07","420494935","1","1","experiment","3","dispFeedback_U","1000","1","91","DEV","POS","1","81","0.2658859009584209621","21.5157011187155120524","81","0.218488979204206013","91","45","50","2","0","17","6","2","34","34","7","28","2","4176","8514","560","6"
"6.6.1","mac","0","2023-02-23","18:09:07","420494935","1","1","experiment","4","experiment_noU","3656","1","86","CEV","POS","1","","","","","","86","50","15","0","0","0","0","3","41","0","12","26","2","4176","8514","560","6"
"6.6.1","mac","0","2023-02-23","18:09:07","420494935","1","1","experiment","4","dispFeedback_noU","1000","1","86","CEV","POS","1","129","0.2991428571428571548","38.4957142857142784464","129","0.5448612634895512175","86","50","15","0","0","0","0","3","41","1","12","26","0","4206","8643","569","9"
"6.6.1","mac","0","2023-02-23","18:09:07","420494935","1","1","experiment","4","experiment_noU","3127","1","1","CEV","POS","1","","","","","","1","50","15","0","0","0","0","3","41","1","12","26","0","4206","8643","569","9"
"6.6.1","mac","0","2023-02-23","18:09:07","420494935","1","1","experiment","4","dispFeedback_noU","1000","1","1","CEV","POS","1","136","0.2675714285714285712","36.4648571428571415254","136","0.0069899130628886435","1","50","15","0","0","0","0","3","41","2","12","26","0","4427","8779","578","9"
"6.6.1","mac","0","2023-02-23","18:09:07","420494935","1","1","experiment","4","experiment_noU","1294","1","38","CEV","POS","1","","","","","","38","50","15","0","0","0","0","3","41","2","12","26","0","4427","8779","578","9"
"6.6.1","mac","0","2023-02-23","18:09:07","420494935","1","1","experiment","4","dispFeedback_noU","1000","1","38","CEV","POS","1","144","0.2651428571428571246","38.0605714285714284983","144","0.1233871302389044217","38","50","15","0","0","0","0","3","41","3","12","26","0","4444","8923","588","10"
"6.6.1","mac","0","2023-02-23","18:09:07","420494935","1","1","experiment","4","experiment_noU","1327","1","39","CEV","POS","1","","","","","","39","50","15","0","0","0","0","3","41","3","12","26","0","4444","8923","588","10"
"6.6.1","mac","0","2023-02-23","18:09:07","420494935","1","1","experiment","4","dispFeedback_noU","1000","1","39","CEV","POS","1","144","0.2532857142857143362","36.493428571428573548","144","0.7119880643933983455","39","50","15","0","0","0","0","3","41","4","12","26","0","4527","9067","598","10"
"6.6.1","mac","0","2023-02-23","18:09:07","420494935","1","1","experiment","4","experiment_noU","3933","1","90","CEV","POS","1","","","","","","90","50","15","0","0","0","0","3","41","4","12","26","0","4527","9067","598","10"
"6.6.1","mac","0","2023-02-23","18:09:07","420494935","1","1","experiment","4","dispFeedback_noU","1000","1","90","CEV","POS","1","157","0.2309999999999999831","36.3069999999999950546","157","0.8087981650160621649","90","50","15","0","0","0","0","3","41","5","12","26","0","4683","9224","608","10"
"6.6.1","mac","0","2023-02-23","18:09:07","420494935","1","1","experiment","4","experiment_noU","2089","1","27","CEV","POS","1","","","","","","27","50","15","0","0","0","0","3","41","5","12","26","0","4683","9224","608","10"
"6.6.1","mac","0","2023-02-23","18:09:07","420494935","1","1","experiment","4","dispFeedback_noU","1000","1","27","CEV","POS","1","164","0.2301428571428570935","37.6904285714285620656","164","0.5973451253020543028","27","50","15","0","0","0","0","3","41","6","12","26","0","4689","9388","618","10"
"6.6.1","mac","0","2023-02-23","18:09:07","420494935","1","1","experiment","4","experiment_noU","1678","1","35","CEV","POS","1","","","","","","35","50","15","0","0","0","0","3","41","6","12","26","0","4689","9388","618","10"
"6.6.1","mac","0","2023-02-23","18:09:07","420494935","1","1","experiment","4","dispFeedback_noU","1000","1","35","CEV","POS","1","162","0.2317142857142857615","37.4634285714285795166","162","0.442853654605069591","35","50","15","0","0","0","0","3","41","7","12","26","0","4678","9550","628","10"
"6.6.1","mac","0","2023-02-23","18:09:07","420494935","1","1","experiment","4","experiment_noU","2507","1","20","CEV","POS","1","","","","","","20","50","15","0","0","0","0","3","41","7","12","26","0","4678","9550","628","10"
"6.6.1","mac","0","2023-02-23","18:09:07","420494935","1","1","experiment","4","dispFeedback_noU","1000","1","20","CEV","POS","1","169","0.2204285714285714182","37.2204285714285632025","169","0.397073450357903146","20","50","15","0","0","0","0","3","41","8","12","26","0","4757","9719","638","10"
"6.6.1","mac","0","2023-02-23","18:09:07","420494935","1","1","experiment","4","experiment_noU","4792","1","76","CEV","POS","1","","","","","","76","50","15","0","0","0","0","3","41","8","12","26","0","4757","9719","638","10"
"6.6.1","mac","0","2023-02-23","18:09:07","420494935","1","1","experiment","4","dispFeedback_noU","1000","1","76","CEV","POS","1","174","0.2082857142857142962","36.1668571428571468118","174","0.0730836030731637915","76","50","15","0","0","0","0","3","41","9","12","26","0","4842","9893","648","10"
"6.6.1","mac","0","2023-02-23","18:09:07","420494935","1","1","experiment","4","experiment_noU","1962","1","29","CEV","POS","1","","","","","","29","50","15","0","0","0","0","3","41","9","12","26","0","4842","9893","648","10"
"6.6.1","mac","0","2023-02-23","18:09:07","420494935","1","1","experiment","4","dispFeedback_noU","1000","1","29","CEV","POS","1","160","0.2339999999999999858","37.4679999999999964189","160","0.2594895824462849498","29","50","15","0","0","0","0","3","41","10","12","26","0","4662","10053","658","10"
"6.6.1","mac","0","2023-02-23","18:09:07","420494935","1","1","experiment","4","experiment_noU","4549","1","80","CEV","POS","1","","","","","","80","50","15","0","0","0","0","3","41","10","12","26","0","4662","10053","658","10"
"6.6.1","mac","0","2023-02-23","18:09:07","420494935","1","1","experiment","4","dispFeedback_noU","1000","1","80","CEV","POS","1","169","0.2144285714285714128","36.1422857142857125723","169","0.6575613142125218413","80","50","15","0","0","0","0","3","41","11","12","26","0","4799","10222","668","10"
"6.6.1","mac","0","2023-02-23","18:09:07","420494935","1","1","experiment","4","experiment_noU","742","1","56","CEV","POS","1","","","","","","56","50","15","0","0","0","0","3","41","11","12","26","0","4799","10222","668","10"
"6.6.1","mac","0","2023-02-23","18:09:07","420494935","1","1","experiment","4","dispFeedback_noU","1000","1","56","CEV","POS","1","171","0.2154285714285714137","36.7845714285714251446","171","0.8965650044606451319","56","50","15","0","0","0","0","3","41","12","12","26","1","4792","10393","678","10"
"6.6.1","mac","0","2023-02-23","18:09:07","420494935","1","1","experiment","4","experiment_U","5037","1","71","CEV","POS","1","","","","","","71","50","15","0","0","0","0","3","41","12","12","26","1","4792","10393","678","10"
"6.6.1","mac","0","2023-02-23","18:09:07","420494935","1","1","experiment","4","dispFeedback_U","1000","1","71","CEV","POS","1","180","0.2089999999999999636","37.6269999999999953388","180","0.1005050190958438894","71","50","15","0","0","1","0","3","41","13","12","26","1","4837","10573","688","10"
"6.6.1","mac","0","2023-02-23","18:09:07","420494935","1","1","experiment","4","experiment_U","3287","1","5","CEV","POS","1","","","","","","5","50","15","0","0","1","0","3","41","13","12","26","1","4837","10573","688","10"
"6.6.1","mac","0","2023-02-23","18:09:07","420494935","1","1","experiment","4","dispFeedback_U","1000","1","5","CEV","POS","1","175","0.2161428571428571921","37.8645714285714376501","175","0.0958873741551971442","5","50","15","0","0","2","0","3","41","14","12","26","1","4787","10748","698","10"
"6.6.1","mac","0","2023-02-23","18:09:07","420494935","1","1","experiment","4","experiment_U","1622","1","38","CEV","POS","1","","","","","","38","50","15","0","0","2","0","3","41","14","12","26","1","4787","10748","698","10"
"6.6.1","mac","0","2023-02-23","18:09:07","420494935","1","1","experiment","4","dispFeedback_U","1000","1","38","CEV","POS","1","166","0.2182857142857143051","36.126857142857140559","166","0.2645891253521174824","38","50","15","0","0","3","0","3","41","15","12","26","1","4772","10914","708","10"
"6.6.1","mac","0","2023-02-23","18:09:07","420494935","1","1","experiment","4","experiment_U","1702","1","36","CEV","POS","1","","","","","","36","50","15","0","0","3","0","3","41","15","12","26","1","4772","10914","708","10"
"6.6.1","mac","0","2023-02-23","18:09:07","420494935","1","1","experiment","4","dispFeedback_U","1000","1","36","CEV","POS","1","166","0.2211428571428571965","36.7788571428571557931","166","0.4860888541410883779","36","50","15","0","0","4","0","3","41","16","12","26","1","4752","11080","718","10"
"6.6.1","mac","0","2023-02-23","18:09:07","420494935","1","1","experiment","4","experiment_U","537","1","65","CEV","POS","1","","","","","","65","50","15","0","0","4","0","3","41","16","12","26","1","4752","11080","718","10"
"6.6.1","mac","0","2023-02-23","18:09:07","420494935","1","1","experiment","4","dispFeedback_U","1000","1","65","CEV","POS","1","38","0.8947142857142856842","34.3158571428571406159","38","0.6835943210598999231","65","50","15","1","0","5","0","3","41","17","12","26","1","37","11118","721","3"
"6.6.1","mac","0","2023-02-23","18:09:07","420494935","1","1","experiment","4","experiment_U","1692","1","32","CEV","POS","1","","","","","","32","50","15","1","0","5","0","3","41","17","12","26","1","37","11118","721","3"
"6.6.1","mac","0","2023-02-23","18:09:07","420494935","1","1","experiment","4","dispFeedback_U","1000","1","32","CEV","POS","1","145","0.2511428571428571122","36.4977142857142808907","145","0.1163834075248761646","32","50","15","1","0","6","0","3","41","18","12","26","1","4542","11263","731","10"
"6.6.1","mac","0","2023-02-23","18:09:07","420494935","1","1","experiment","4","experiment_U","1530","1","35","CEV","POS","1","","","","","","35","50","15","1","0","6","0","3","41","18","12","26","1","4542","11263","731","10"
"6.6.1","mac","0","2023-02-23","18:09:07","420494935","1","1","experiment","4","dispFeedback_U","1000","1","35","CEV","POS","1","148","0.2528571428571428914","37.5057142857142906678","148","0.6122323590359259882","35","50","15","1","0","7","0","3","41","19","12","26","1","4530","11411","741","10"
"6.6.1","mac","0","2023-02-23","18:09:07","420494935","1","1","experiment","4","experiment_U","4069","1","86","CEV","POS","1","","","","","","86","50","15","1","0","7","0","3","41","19","12","26","1","4530","11411","741","10"
"6.6.1","mac","0","2023-02-23","18:09:07","420494935","1","1","experiment","4","dispFeedback_U","1000","1","86","CEV","POS","1","152","0.2401428571428571024","36.5197142857142793559","152","0.9083823421756695993","86","50","15","1","0","8","0","3","41","20","12","26","1","4619","11563","751","10"
"6.6.1","mac","0","2023-02-23","18:09:07","420494935","1","1","experiment","4","experiment_U","3373","1","99","CEV","POS","1","","","","","","99","50","15","1","0","8","0","3","41","20","12","26","1","4619","11563","751","10"
"6.6.1","mac","0","2023-02-23","18:09:07","420494935","1","1","experiment","4","dispFeedback_U","1000","1","99","CEV","POS","1","150","0.2467142857142856638","36.9999999999999928946","150","0.5608442888038336349","99","50","15","1","0","9","0","3","41","21","12","26","1","4573","11713","761","10"
"6.6.1","mac","0","2023-02-23","18:09:07","420494935","1","1","experiment","4","experiment_U","3217","1","4","CEV","POS","1","","","","","","4","50","15","1","0","9","0","3","41","21","12","26","1","4573","11713","761","10"
"6.6.1","mac","0","2023-02-23","18:09:07","420494935","1","1","experiment","4","dispFeedback_U","1000","1","4","CEV","POS","1","164","0.2332857142857143185","38.166428571428575367","164","0.1066146800542750184","4","50","15","1","0","10","0","3","41","22","12","26","1","4667","11877","771","10"
"6.6.1","mac","0","2023-02-23","18:09:07","420494935","1","1","experiment","4","experiment_U","4870","1","71","CEV","POS","1","","","","","","71","50","15","1","0","10","0","3","41","22","12","26","1","4667","11877","771","10"
"6.6.1","mac","0","2023-02-23","18:09:07","420494935","1","1","experiment","4","dispFeedback_U","1000","1","71","CEV","POS","1","157","0.2328571428571428736","36.534285714285715585","157","0.6057482474962594399","71","50","15","1","0","11","0","3","41","23","12","26","1","4670","12034","781","10"
"6.6.1","mac","0","2023-02-23","18:09:07","420494935","1","1","experiment","4","experiment_U","2515","1","21","CEV","POS","1","","","","","","21","50","15","1","0","11","0","3","41","23","12","26","1","4670","12034","781","10"
"6.6.1","mac","0","2023-02-23","18:09:07","420494935","1","1","experiment","4","dispFeedback_U","1000","1","21","CEV","POS","1","175","0.2121428571428571885","37.2121428571428651821","175","0.2466161433250215196","21","50","15","1","0","12","0","3","41","24","12","26","1","4815","12209","791","10"
"6.6.1","mac","0","2023-02-23","18:09:07","420494935","1","1","experiment","4","experiment_U","4376","1","80","CEV","POS","1","","","","","","80","50","15","1","0","12","0","3","41","24","12","26","1","4815","12209","791","10"
"6.6.1","mac","0","2023-02-23","18:09:07","420494935","1","1","experiment","4","dispFeedback_U","1000","1","80","CEV","POS","1","150","0.2391428571428571015","35.804285714285711606","150","0.6860191742158538997","80","50","15","1","0","13","0","3","41","25","12","26","1","4626","12359","801","10"
"6.6.1","mac","0","2023-02-23","18:09:07","420494935","1","1","experiment","4","experiment_U","5057","1","67","CEV","POS","1","","","","","","67","50","15","1","0","13","0","3","41","25","12","26","1","4626","12359","801","10"
"6.6.1","mac","0","2023-02-23","18:09:07","420494935","1","1","experiment","4","dispFeedback_U","1000","1","67","CEV","POS","1","155","0.2347142857142857642","36.2958571428571517004","155","0.4666808406977636658","67","50","15","1","0","14","0","3","41","26","12","26","1","4657","12514","811","10"
"6.6.1","mac","0","2023-02-23","18:09:07","420494935","1","1","experiment","4","experiment_U","3498","1","0","CEV","POS","1","","","","","","0","50","15","1","0","14","0","3","41","26","12","26","1","4657","12514","811","10"
"6.6.1","mac","0","2023-02-23","18:09:07","420494935","1","1","experiment","4","dispFeedback_U","1000","1","0","CEV","POS","1","166","0.2217142857142857526","36.7782857142857153576","166","0.488862716939501174","0","50","15","1","0","15","0","3","41","27","12","26","1","4748","12680","821","10"
"6.6.1","mac","0","2023-02-23","18:09:07","420494935","1","1","experiment","4","experiment_U","810","1","51","CEV","POS","1","","","","","","51","50","15","1","0","15","0","3","41","27","12","26","1","4748","12680","821","10"
"6.6.1","mac","0","2023-02-23","18:09:07","420494935","1","1","experiment","4","dispFeedback_U","1000","1","51","CEV","POS","1","155","0.2414285714285714368","37.4828571428571422075","155","0.2296337928226296343","51","50","15","1","0","16","0","3","41","28","12","26","1","4610","12835","831","10"
"6.6.1","mac","0","2023-02-23","18:09:07","420494935","1","1","experiment","4","experiment_U","3183","1","6","CEV","POS","1","","","","","","6","50","15","1","0","16","0","3","41","28","12","26","1","4610","12835","831","10"
"6.6.1","mac","0","2023-02-23","18:09:07","420494935","1","1","experiment","4","dispFeedback_U","1000","1","6","CEV","POS","1","160","0.2238571428571428656","35.8807142857142835624","160","0.4664159578891508007","6","50","15","1","0","17","0","3","41","29","12","26","1","4733","12995","841","10"
"6.6.1","mac","0","2023-02-23","18:09:07","420494935","1","1","experiment","4","experiment_U","3569","1","98","CEV","POS","1","","","","","","98","50","15","1","0","17","0","3","41","29","12","26","1","4733","12995","841","10"
"6.6.1","mac","0","2023-02-23","18:09:07","420494935","1","1","experiment","4","dispFeedback_U","1000","1","98","CEV","POS","1","162","0.2258571428571428674","36.5482857142857113786","162","0.1772077107283304698","98","50","15","1","0","18","0","3","41","30","12","26","1","4719","13157","851","10"
"6.6.1","mac","0","2023-02-23","18:09:07","420494935","1","1","experiment","4","experiment_U","5209","1","66","CEV","POS","1","","","","","","66","50","15","1","0","18","0","3","41","30","12","26","1","4719","13157","851","10"
"6.6.1","mac","0","2023-02-23","18:09:07","420494935","1","1","experiment","4","dispFeedback_U","1000","1","66","CEV","POS","1","165","0.2201428571428571956","36.3395714285714390712","165","0.2629347860959672101","66","50","15","1","0","19","0","3","41","31","12","26","1","4759","13322","861","10"
"6.6.1","mac","0","2023-02-23","18:09:07","420494935","1","1","experiment","4","experiment_U","963","1","49","CEV","POS","1","","","","","","49","50","15","1","0","19","0","3","41","31","12","26","1","4759","13322","861","10"
"6.6.1","mac","0","2023-02-23","18:09:07","420494935","1","1","experiment","4","dispFeedback_U","1000","1","49","CEV","POS","1","161","0.2338571428571428745","37.7015714285714338416","161","0.5150447456434007476","49","50","15","1","0","20","0","3","41","32","12","26","1","4663","13483","871","10"
"6.6.1","mac","0","2023-02-23","18:09:07","420494935","1","1","experiment","4","experiment_U","2077","1","27","CEV","POS","1","","","","","","27","50","15","1","0","20","0","3","41","32","12","26","1","4663","13483","871","10"
"6.6.1","mac","0","2023-02-23","18:09:07","420494935","1","1","experiment","4","dispFeedback_U","1000","1","27","CEV","POS","1","162","0.2318571428571428727","37.4637142857142890762","162","0.7327833163395485183","27","50","15","1","0","21","0","3","41","33","12","26","1","4677","13645","881","10"
"6.6.1","mac","0","2023-02-23","18:09:07","420494935","1","1","experiment","4","experiment_U","2581","1","19","CEV","POS","1","","","","","","19","50","15","1","0","21","0","3","41","33","12","26","1","4677","13645","881","10"
"6.6.1","mac","0","2023-02-23","18:09:07","420494935","1","1","experiment","4","dispFeedback_U","1000","1","19","CEV","POS","1","167","0.2169999999999999707","36.1319999999999978968","167","0.5590194742099893199","19","50","15","1","0","22","0","3","41","34","12","26","2","4781","13812","891","10"
"6.6.1","mac","0","2023-02-23","18:09:07","420494935","1","1","experiment","4","experiment_U","4429","1","80","CEV","POS","1","","","","","","80","50","15","1","0","22","0","3","41","34","12","26","2","4781","13812","891","10"
"6.6.1","mac","0","2023-02-23","18:09:07","420494935","1","1","experiment","4","dispFeedback_U","1000","1","80","CEV","POS","1","159","0.2315714285714285392","36.7684285714285721269","159","0.3046620866061798272","80","50","15","1","0","22","1","3","41","35","12","26","2","4679","13971","901","10"
"6.6.1","mac","0","2023-02-23","18:09:07","420494935","1","1","experiment","4","experiment_U","3929","1","90","CEV","POS","1","","","","","","90","50","15","1","0","22","1","3","41","35","12","26","2","4679","13971","901","10"
"6.6.1","mac","0","2023-02-23","18:09:07","420494935","1","1","experiment","4","dispFeedback_U","1000","1","90","CEV","POS","1","158","0.2315714285714285392","36.5368571428571442539","158","0.0522223285055305672","90","50","15","1","0","22","2","3","41","36","12","26","2","4679","14129","911","10"
"6.6.1","mac","0","2023-02-23","18:09:07","420494935","1","1","experiment","4","experiment_U","4328","1","82","CEV","POS","1","","","","","","82","50","15","1","0","22","2","3","41","36","12","26","2","4679","14129","911","10"
"6.6.1","mac","0","2023-02-23","18:09:07","420494935","1","1","experiment","4","dispFeedback_U","1000","1","82","CEV","POS","1","159","0.2317142857142857615","36.7682857142857244526","159","0.5751293347159236458","82","50","15","1","0","22","3","3","41","37","12","26","2","4678","14288","921","10"
"6.6.1","mac","0","2023-02-23","18:09:07","420494935","1","1","experiment","4","experiment_U","2252","1","24","CEV","POS","1","","","","","","24","50","15","1","0","22","3","3","41","37","12","26","2","4678","14288","921","10"
"6.6.1","mac","0","2023-02-23","18:09:07","420494935","1","1","experiment","4","dispFeedback_U","1000","1","24","CEV","POS","1","165","0.228285714285714314","37.6848571428571474939","165","0.0490201276375493364","24","50","15","1","0","22","4","3","41","38","12","26","2","4702","14453","931","10"
"6.6.1","mac","0","2023-02-23","18:09:07","420494935","1","1","experiment","4","experiment_U","3810","1","93","CEV","POS","1","","","","","","93","50","15","1","0","22","4","3","41","38","12","26","2","4702","14453","931","10"
"6.6.1","mac","0","2023-02-23","18:09:07","420494935","1","1","experiment","4","dispFeedback_U","1000","1","93","CEV","POS","1","165","0.2271428571428570908","37.4542857142857101849","165","0.4683304018034437632","93","50","15","1","0","22","5","3","41","39","12","26","2","4710","14618","941","10"
"6.6.1","mac","0","2023-02-23","18:09:07","420494935","1","1","experiment","4","experiment_U","1773","1","34","CEV","POS","1","","","","","","34","50","15","1","0","22","5","3","41","39","12","26","2","4710","14618","941","10"
"6.6.1","mac","0","2023-02-23","18:09:07","420494935","1","1","experiment","4","dispFeedback_U","1000","1","34","CEV","POS","1","168","0.2252857142857143113","37.901142857142865239","168","0.5874922498100186852","34","50","15","1","0","22","6","3","41","40","12","26","2","4723","14786","951","10"
"6.6.1","mac","0","2023-02-23","18:09:07","420494935","1","1","experiment","4","experiment_U","1737","1","38","CEV","POS","1","","","","","","38","50","15","1","0","22","6","3","41","40","12","26","2","4723","14786","951","10"
"6.6.1","mac","0","2023-02-23","18:09:07","420494935","1","1","experiment","4","dispFeedback_U","1000","1","38","CEV","POS","1","188","0.2018571428571428461","38.0092857142857099007","188","0.0402719420474655782","38","50","15","1","0","22","7","3","41","41","12","26","2","4887","14974","961","10"
"6.6.1","mac","0","2023-02-23","18:09:07","420494935","1","1","experiment","5","experiment_noU","4545","1","81","IEV","POS","1","","","","","","81","15","10","0","0","0","0","4","43","0","10","31","2","4887","14974","961","10"
"6.6.1","mac","0","2023-02-23","18:09:07","420494935","1","1","experiment","5","dispFeedback_noU","1000","1","81","IEV","POS","1","271","0.2129099158448961027","57.6575438482967328468","271","0.6800448148697718631","81","15","10","0","0","0","0","4","43","1","10","31","0","4845","15245","971","10"
"6.6.1","mac","0","2023-02-23","18:09:07","420494935","1","1","experiment","5","experiment_noU","3979","1","91","IEV","POS","1","","","","","","91","15","10","0","0","0","0","4","43","1","10","31","0","4845","15245","971","10"
"6.6.1","mac","0","2023-02-23","18:09:07","420494935","1","1","experiment","5","dispFeedback_noU","1000","1","91","IEV","POS","1","252","0.2248044838368580267","56.7583300467411291379","252","0.8351418815635008874","91","15","10","0","0","0","0","4","43","2","10","31","0","4779","15497","981","10"
"6.6.1","mac","0","2023-02-23","18:09:07","420494935","1","1","experiment","5","experiment_noU","4078","1","89","IEV","POS","1","","","","","","89","15","10","0","0","0","0","4","43","2","10","31","0","4779","15497","981","10"
"6.6.1","mac","0","2023-02-23","18:09:07","420494935","1","1","experiment","5","dispFeedback_noU","1000","1","89","IEV","POS","1","258","0.2249861076590235487","58.1041702088682043836","258","0.1093069869348097106","89","15","10","0","0","0","0","4","43","3","10","31","0","4778","15755","991","10"
"6.6.1","mac","0","2023-02-23","18:09:07","420494935","1","1","experiment","5","experiment_noU","5166","1","64","IEV","POS","1","","","","","","64","15","10","0","0","0","0","4","43","3","10","31","0","4778","15755","991","10"
"6.6.1","mac","0","2023-02-23","18:09:07","420494935","1","1","experiment","5","dispFeedback_noU","1000","1","64","IEV","POS","1","227","0.254941976354168931","57.8249667076699438439","227","0.0493015668004056357","64","15","10","0","0","0","0","4","43","4","10","31","0","4616","15982","1001","10"
"6.6.1","mac","0","2023-02-23","18:09:07","420494935","1","1","experiment","5","experiment_noU","3185","1","7","IEV","POS","1","","","","","","7","15","10","0","0","0","0","4","43","4","10","31","0","4616","15982","1001","10"
"6.6.1","mac","0","2023-02-23","18:09:07","420494935","1","1","experiment","5","dispFeedback_noU","1000","1","7","IEV","POS","1","259","0.2237156126460066452","57.9012846326020422794","259","0.54630152311788438","7","15","10","0","0","0","0","4","43","5","10","31","0","4785","16241","1011","10"
"6.6.1","mac","0","2023-02-23","18:09:07","420494935","1","1","experiment","5","experiment_noU","1497","1","40","IEV","POS","1","","","","","","40","15","10","0","0","0","0","4","43","5","10","31","0","4785","16241","1011","10"
"6.6.1","mac","0","2023-02-23","18:09:07","420494935","1","1","experiment","5","dispFeedback_noU","1000","1","40","IEV","POS","1","251","0.2306369138061106772","57.7791063451098949599","251","0.6233303976765206533","40","15","10","0","0","0","0","4","43","6","10","31","0","4747","16492","1021","10"
"6.6.1","mac","0","2023-02-23","18:09:07","420494935","1","1","experiment","5","experiment_noU","554","1","63","IEV","POS","1","","","","","","63","15","10","0","0","0","0","4","43","6","10","31","0","4747","16492","1021","10"
"6.6.1","mac","0","2023-02-23","18:09:07","420494935","1","1","experiment","5","dispFeedback_noU","1000","1","63","IEV","POS","1","300","0.1936749126436356772","58.1882324221038160772","300","0.9832282438835194815","63","15","10","0","0","0","0","4","43","7","10","31","0","4954","16792","1031","10"
"6.6.1","mac","0","2023-02-23","18:09:07","420494935","1","1","experiment","5","experiment_noU","620","1","52","IEV","POS","1","","","","","","52","15","10","0","0","0","0","4","43","7","10","31","0","4954","16792","1031","10"
"6.6.1","mac","0","2023-02-23","18:09:07","420494935","1","1","experiment","5","dispFeedback_noU","1000","1","52","IEV","POS","1","199","0.2827930390810194927","56.1496408978856180738","199","0.4768600565094640586","52","15","10","0","0","0","0","4","43","8","10","31","0","4470","16991","1041","10"
"6.6.1","mac","0","2023-02-23","18:09:07","420494935","1","1","experiment","5","experiment_noU","1416","1","42","IEV","POS","1","","","","","","42","15","10","0","0","0","0","4","43","8","10","31","0","4470","16991","1041","10"
"6.6.1","mac","0","2023-02-23","18:09:07","420494935","1","1","experiment","5","dispFeedback_noU","1000","1","42","IEV","POS","1","250","0.2271688219064236791","56.7050285819967712087","250","0.9880015833741057074","42","15","10","0","0","0","0","4","43","9","10","31","0","4766","17241","1051","10"
"6.6.1","mac","0","2023-02-23","18:09:07","420494935","1","1","experiment","5","experiment_noU","3715","1","96","IEV","POS","1","","","","","","96","15","10","0","0","0","0","4","43","9","10","31","0","4766","17241","1051","10"
"6.6.1","mac","0","2023-02-23","18:09:07","420494935","1","1","experiment","5","dispFeedback_noU","1000","1","96","IEV","POS","1","251","0.2273509832025824851","57.1556027961383108504","251","0.3898283695778410052","96","15","10","0","0","0","0","4","43","10","10","31","1","4765","17492","1061","10"
"6.6.1","mac","0","2023-02-23","18:09:07","420494935","1","1","experiment","5","experiment_U","4703","1","76","IEV","POS","1","","","","","","76","15","10","0","0","0","0","4","43","10","10","31","1","4765","17492","1061","10"
"6.6.1","mac","0","2023-02-23","18:09:07","420494935","1","1","experiment","5","dispFeedback_U","1000","1","76","IEV","POS","1","248","0.2295401272863283881","56.8805983423387644393","248","0.0707403188736039079","76","15","10","0","0","1","0","4","43","11","10","31","1","4753","17740","1071","10"
"6.6.1","mac","0","2023-02-23","18:09:07","420494935","1","1","experiment","5","experiment_U","3518","1","1","IEV","POS","1","","","","","","1","15","10","0","0","1","0","4","43","11","10","31","1","4753","17740","1071","10"
"6.6.1","mac","0","2023-02-23","18:09:07","420494935","1","1","experiment","5","dispFeedback_U","1000","1","1","IEV","POS","1","267","0.2177536952884120136","58.220796313386266263","267","0.7076053495303740171","1","15","10","0","0","2","0","4","43","12","10","31","1","4818","18007","1081","10"
"6.6.1","mac","0","2023-02-23","18:09:07","420494935","1","1","experiment","5","experiment_U","5066","1","68","IEV","POS","1","","","","","","68","15","10","0","0","2","0","4","43","12","10","31","1","4818","18007","1081","10"
"6.6.1","mac","0","2023-02-23","18:09:07","420494935","1","1","experiment","5","dispFeedback_U","1000","1","68","IEV","POS","1","241","0.2363269722187143485","56.9663977848340081778","241","0.9366916615834207649","68","15","10","0","0","3","0","4","43","13","10","31","1","4716","18248","1091","10"
"6.6.1","mac","0","2023-02-23","18:09:07","420494935","1","1","experiment","5","experiment_U","4581","1","77","IEV","POS","1","","","","","","77","15","10","0","0","3","0","4","43","13","10","31","1","4716","18248","1091","10"
"6.6.1","mac","0","2023-02-23","18:09:07","420494935","1","1","experiment","5","dispFeedback_U","1000","1","77","IEV","POS","1","237","0.2427976299784271041","57.5537922215355592925","237","0.1531267813763410868","77","15","10","0","0","4","0","4","43","14","10","31","1","4681","18485","1101","10"
"6.6.1","mac","0","2023-02-23","18:09:07","420494935","1","1","experiment","5","experiment_U","4818","1","75","IEV","POS","1","","","","","","75","15","10","0","0","4","0","4","43","14","10","31","1","4681","18485","1101","10"
"6.6.1","mac","0","2023-02-23","18:09:07","420494935","1","1","experiment","5","dispFeedback_U","1000","1","75","IEV","POS","1","266","0.2177536952884120136","58.003042618097850891","266","0.8124278492323188106","75","15","10","0","0","5","0","4","43","15","10","31","1","4818","18751","1111","10"
"6.6.1","mac","0","2023-02-23","18:09:07","420494935","1","1","experiment","5","experiment_U","1869","1","32","IEV","POS","1","","","","","","32","15","10","0","0","5","0","4","43","15","10","31","1","4818","18751","1111","10"
"6.6.1","mac","0","2023-02-23","18:09:07","420494935","1","1","experiment","5","dispFeedback_U","1000","1","32","IEV","POS","1","242","0.2357746228500111896","56.9782544790033114168","242","0.8533195934382545866","32","15","10","0","0","6","0","4","43","16","10","31","1","4719","18993","1121","10"
"6.6.1","mac","0","2023-02-23","18:09:07","420494935","1","1","experiment","5","experiment_U","2794","1","11","IEV","POS","1","","","","","","11","15","10","0","0","6","0","4","43","16","10","31","1","4719","18993","1121","10"
"6.6.1","mac","0","2023-02-23","18:09:07","420494935","1","1","experiment","5","dispFeedback_U","1000","1","11","IEV","POS","1","215","0.2590889760695384014","55.6758731692283390657","215","0.404328015261406104","11","15","10","0","0","7","0","4","43","17","10","31","1","4594","19208","1131","10"
"6.6.1","mac","0","2023-02-23","18:09:07","420494935","1","1","experiment","5","experiment_U","557","1","65","IEV","POS","1","","","","","","65","15","10","0","0","7","0","4","43","17","10","31","1","4594","19208","1131","10"
"6.6.1","mac","0","2023-02-23","18:09:07","420494935","1","1","experiment","5","dispFeedback_U","1000","1","65","IEV","POS","1","14","0.8998407136757687885","12.3091885072210640573","14","0.1093855216422550264","65","15","10","1","0","8","0","4","43","18","10","31","1","57","19222","1132","1"
"6.6.1","mac","0","2023-02-23","18:09:07","420494935","1","1","experiment","5","experiment_U","2822","1","11","IEV","POS","1","","","","","","11","15","10","1","0","8","0","4","43","18","10","31","1","57","19222","1132","1"
"6.6.1","mac","0","2023-02-23","18:09:07","420494935","1","1","experiment","5","dispFeedback_U","1000","1","11","IEV","POS","1","223","0.2538141494855993274","56.5763896421967515948","223","0.2971014169270874694","11","15","10","1","0","9","0","4","43","19","10","31","1","4622","19445","1142","10"
"6.6.1","mac","0","2023-02-23","18:09:07","420494935","1","1","experiment","5","experiment_U","497","1","64","IEV","POS","1","","","","","","64","15","10","1","0","9","0","4","43","19","10","31","1","4622","19445","1142","10"
"6.6.1","mac","0","2023-02-23","18:09:07","420494935","1","1","experiment","5","dispFeedback_U","1000","1","64","IEV","POS","1","294","0.1948945630892099379","57.3894564692054061084","294","0.0742082931274101881","64","15","10","1","0","10","0","4","43","20","10","31","1","4947","19739","1152","10"
"6.6.1","mac","0","2023-02-23","18:09:07","420494935","1","1","experiment","5","experiment_U","3589","1","95","IEV","POS","1","","","","","","95","15","10","1","0","10","0","4","43","20","10","31","1","4947","19739","1152","10"
"6.6.1","mac","0","2023-02-23","18:09:07","420494935","1","1","experiment","5","dispFeedback_U","1000","1","95","IEV","POS","1","220","0.2600340072638011035","57.2108846392380669954","220","0.136706979511470289","95","15","10","1","0","11","0","4","43","21","10","31","1","4589","19959","1162","10"
"6.6.1","mac","0","2023-02-23","18:09:07","420494935","1","1","experiment","5","experiment_U","2529","1","13","IEV","POS","1","","","","","","13","15","10","1","0","11","0","4","43","21","10","31","1","4589","19959","1162","10"
"6.6.1","mac","0","2023-02-23","18:09:07","420494935","1","1","experiment","5","dispFeedback_U","1000","1","13","IEV","POS","1","194","0.2907482348778835379","56.5303641330456088099","194","0.9906999729552072864","13","15","10","1","0","12","0","4","43","22","10","31","1","4429","20153","1172","10"
"6.6.1","mac","0","2023-02-23","18:09:07","420494935","1","1","experiment","5","experiment_U","3220","1","3","IEV","POS","1","","","","","","3","15","10","1","0","12","0","4","43","22","10","31","1","4429","20153","1172","10"
"6.6.1","mac","0","2023-02-23","18:09:07","420494935","1","1","experiment","5","dispFeedback_U","1000","1","3","IEV","POS","1","225","0.2541899398214234607","57.0760753540002880868","225","0.9467404116752419219","3","15","10","1","0","13","0","4","43","23","10","31","1","4620","20378","1182","10"
"6.6.1","mac","0","2023-02-23","18:09:07","420494935","1","1","experiment","5","experiment_U","1891","1","30","IEV","POS","1","","","","","","30","15","10","1","0","13","0","4","43","23","10","31","1","4620","20378","1182","10"
"6.6.1","mac","0","2023-02-23","18:09:07","420494935","1","1","experiment","5","dispFeedback_U","1000","1","30","IEV","POS","1","226","0.250251760403081891","56.6581509937520877429","226","0.3239850186100194929","30","15","10","1","0","14","0","4","43","24","10","31","1","4641","20604","1192","10"
"6.6.1","mac","0","2023-02-23","18:09:07","420494935","1","1","experiment","5","experiment_U","1479","1","37","IEV","POS","1","","","","","","37","15","10","1","0","14","0","4","43","24","10","31","1","4641","20604","1192","10"
"6.6.1","mac","0","2023-02-23","18:09:07","420494935","1","1","experiment","5","dispFeedback_U","1000","1","37","IEV","POS","1","217","0.2619268587767802914","56.9096024695813511585","217","0.8641765557378942031","37","15","10","1","0","15","0","4","43","25","10","31","1","4579","20821","1202","10"
"6.6.1","mac","0","2023-02-23","18:09:07","420494935","1","1","experiment","5","experiment_U","5101","1","70","IEV","POS","1","","","","","","70","15","10","1","0","15","0","4","43","25","10","31","1","4579","20821","1202","10"
"6.6.1","mac","0","2023-02-23","18:09:07","420494935","1","1","experiment","5","dispFeedback_U","1000","1","70","IEV","POS","1","276","0.2118377330759469435","58.5245352889803314156","276","0.1922716584969944575","70","15","10","1","0","16","0","4","43","26","10","31","1","4851","21097","1212","10"
"6.6.1","mac","0","2023-02-23","18:09:07","420494935","1","1","experiment","5","experiment_U","740","1","51","IEV","POS","1","","","","","","51","15","10","1","0","16","0","4","43","26","10","31","1","4851","21097","1212","10"
"6.6.1","mac","0","2023-02-23","18:09:07","420494935","1","1","experiment","5","dispFeedback_U","1000","1","51","IEV","POS","1","214","0.2693440679266842497","57.5527439229430513024","214","0.9405472536898561442","51","15","10","1","0","17","0","4","43","27","10","31","1","4540","21311","1222","10"
"6.6.1","mac","0","2023-02-23","18:09:07","420494935","1","1","experiment","5","experiment_U","2681","1","13","IEV","POS","1","","","","","","13","15","10","1","0","17","0","4","43","27","10","31","1","4540","21311","1222","10"
"6.6.1","mac","0","2023-02-23","18:09:07","420494935","1","1","experiment","5","dispFeedback_U","1000","1","13","IEV","POS","1","218","0.2615479918536707249","56.9178855875842444334","218","0.1000031517120085478","13","15","10","1","0","18","0","4","43","28","10","31","1","4581","21529","1232","10"
"6.6.1","mac","0","2023-02-23","18:09:07","420494935","1","1","experiment","5","experiment_U","4129","1","85","IEV","POS","1","","","","","","85","15","10","1","0","18","0","4","43","28","10","31","1","4581","21529","1232","10"
"6.6.1","mac","0","2023-02-23","18:09:07","420494935","1","1","experiment","5","dispFeedback_U","1000","1","85","IEV","POS","1","227","0.2525000832772703041","57.3641876703180031427","227","0.8176260457415194249","85","15","10","1","0","19","0","4","43","29","10","31","1","4629","21756","1242","10"
"6.6.1","mac","0","2023-02-23","18:09:07","420494935","1","1","experiment","5","experiment_U","2806","1","8","IEV","POS","1","","","","","","8","15","10","1","0","19","0","4","43","29","10","31","1","4629","21756","1242","10"
"6.6.1","mac","0","2023-02-23","18:09:07","420494935","1","1","experiment","5","dispFeedback_U","1000","1","8","IEV","POS","1","199","0.2855031273432963035","56.9384309324944126729","199","0.2057691135457179188","8","15","10","1","0","20","0","4","43","30","10","31","0","4456","21955","1252","10"
"6.6.1","mac","0","2023-02-23","18:09:07","420494935","1","1","experiment","5","experiment_noU","5031","1","63","IEV","POS","1","","","","","","63","15","10","1","0","20","0","4","43","30","10","31","0","4456","21955","1252","10"
"6.6.1","mac","0","2023-02-23","18:09:07","420494935","1","1","experiment","5","dispFeedback_noU","1000","1","63","IEV","POS","1","188","0.2903588821091819261","54.5070402934922455529","188","0.1248236415267045679","63","15","10","1","0","20","0","4","43","31","10","31","2","4431","22143","1262","10"
"6.6.1","mac","0","2023-02-23","18:09:07","420494935","1","1","experiment","5","experiment_U","4523","1","76","IEV","POS","1","","","","","","76","15","10","1","0","20","0","4","43","31","10","31","2","4431","22143","1262","10"
"6.6.1","mac","0","2023-02-23","18:09:07","420494935","1","1","experiment","5","dispFeedback_U","1000","1","76","IEV","POS","1","218","0.263064346114577019","57.4107811173719824183","218","0.4068082662780788672","76","15","10","1","0","20","1","4","43","32","10","31","2","4573","22361","1272","10"
"6.6.1","mac","0","2023-02-23","18:09:07","420494935","1","1","experiment","5","experiment_U","1756","1","30","IEV","POS","1","","","","","","30","15","10","1","0","20","1","4","43","32","10","31","2","4573","22361","1272","10"
"6.6.1","mac","0","2023-02-23","18:09:07","420494935","1","1","experiment","5","dispFeedback_U","1000","1","30","IEV","POS","1","203","0.2758550128072100871","56.0439662748596987285","203","0.628970214777851977","30","15","10","1","0","20","2","4","43","33","10","31","2","4506","22564","1282","10"
"6.6.1","mac","0","2023-02-23","18:09:07","420494935","1","1","experiment","5","experiment_U","2746","1","11","IEV","POS","1","","","","","","11","15","10","1","0","20","2","4","43","33","10","31","2","4506","22564","1282","10"
"6.6.1","mac","0","2023-02-23","18:09:07","420494935","1","1","experiment","5","dispFeedback_U","1000","1","11","IEV","POS","1","207","0.2681993605779736667","55.4295020512383800337","207","0.9394626952566818012","11","15","10","1","0","20","3","4","43","34","10","31","2","4546","22771","1292","10"
"6.6.1","mac","0","2023-02-23","18:09:07","420494935","1","1","experiment","5","experiment_U","3153","1","4","IEV","POS","1","","","","","","4","15","10","1","0","20","3","4","43","34","10","31","2","4546","22771","1292","10"
"6.6.1","mac","0","2023-02-23","18:09:07","420494935","1","1","experiment","5","dispFeedback_U","1000","1","4","IEV","POS","1","221","0.2573902755786260932","57.0078971457181395976","221","0.1307550836658931959","4","15","10","1","0","20","4","4","43","35","10","31","2","4603","22992","1302","10"
"6.6.1","mac","0","2023-02-23","18:09:07","420494935","1","1","experiment","5","experiment_U","3543","1","94","IEV","POS","1","","","","","","94","15","10","1","0","20","4","4","43","35","10","31","2","4603","22992","1302","10"
"6.6.1","mac","0","2023-02-23","18:09:07","420494935","1","1","experiment","5","dispFeedback_U","1000","1","94","IEV","POS","1","197","0.2783552464779499025","54.8672453199078447028","197","0.7615036656524761804","94","15","10","1","0","20","5","4","43","36","10","31","2","4493","23189","1312","10"
"6.6.1","mac","0","2023-02-23","18:09:07","420494935","1","1","experiment","5","experiment_U","2322","1","23","IEV","POS","1","","","","","","23","15","10","1","0","20","5","4","43","36","10","31","2","4493","23189","1312","10"
"6.6.1","mac","0","2023-02-23","18:09:07","420494935","1","1","experiment","5","dispFeedback_U","1000","1","23","IEV","POS","1","240","0.2352226358835040332","56.51963003437387556","240","0.2669600814736821093","23","15","10","1","0","20","6","4","43","37","10","31","2","4722","23429","1322","10"
"6.6.1","mac","0","2023-02-23","18:09:07","420494935","1","1","experiment","5","experiment_U","4605","1","70","IEV","POS","1","","","","","","70","15","10","1","0","20","6","4","43","37","10","31","2","4722","23429","1322","10"
"6.6.1","mac","0","2023-02-23","18:09:07","420494935","1","1","experiment","5","dispFeedback_U","1000","1","70","IEV","POS","1","184","0.3052443213873942129","56.177951260384709542","184","0.8039882371211397594","70","15","10","1","0","20","7","4","43","38","10","31","2","4355","23613","1332","10"
"6.6.1","mac","0","2023-02-23","18:09:07","420494935","1","1","experiment","5","experiment_U","3731","1","91","IEV","POS","1","","","","","","91","15","10","1","0","20","7","4","43","38","10","31","2","4355","23613","1332","10"
"6.6.1","mac","0","2023-02-23","18:09:07","420494935","1","1","experiment","5","dispFeedback_U","1000","1","91","IEV","POS","1","205","0.2710635534443385231","55.6214890412315767776","205","0.6173133225220519549","91","15","10","1","0","20","8","4","43","39","10","31","2","4531","23818","1342","10"
"6.6.1","mac","0","2023-02-23","18:09:07","420494935","1","1","experiment","5","experiment_U","5138","1","63","IEV","POS","1","","","","","","63","15","10","1","0","20","8","4","43","39","10","31","2","4531","23818","1342","10"
"6.6.1","mac","0","2023-02-23","18:09:07","420494935","1","1","experiment","5","dispFeedback_U","1000","1","63","IEV","POS","1","208","0.2697259248951699995","56.1966300840634644942","208","0.6036770037849612525","63","15","10","1","0","20","9","4","43","40","10","31","2","4538","24026","1352","10"
"6.6.1","mac","0","2023-02-23","18:09:07","420494935","1","1","experiment","5","experiment_U","742","1","49","IEV","POS","1","","","","","","49","15","10","1","0","20","9","4","43","40","10","31","2","4538","24026","1352","10"
"6.6.1","mac","0","2023-02-23","18:09:07","420494935","1","1","experiment","5","dispFeedback_U","1000","1","49","IEV","POS","1","198","0.2882197950252321506","57.1662141462092918687","198","0.7161417214004652809","49","15","10","1","0","20","10","4","43","41","10","31","2","4442","24224","1362","10"
"6.6.1","mac","0","2023-02-23","18:09:07","420494935","1","1","experiment","5","experiment_U","4816","1","70","IEV","POS","1","","","","","","70","15","10","1","0","20","10","4","43","41","10","31","2","4442","24224","1362","10"
"6.6.1","mac","0","2023-02-23","18:09:07","420494935","1","1","experiment","5","dispFeedback_U","1000","1","70","IEV","POS","1","209","0.2643930895670305037","55.2689941991133650845","209","0.1296124614611297021","70","15","10","1","0","20","11","4","43","42","10","31","2","4566","24433","1372","10"
"6.6.1","mac","0","2023-02-23","18:09:07","420494935","1","1","experiment","5","experiment_U","2669","1","14","IEV","POS","1","","","","","","14","15","10","1","0","20","11","4","43","42","10","31","2","4566","24433","1372","10"
"6.6.1","mac","0","2023-02-23","18:09:07","420494935","1","1","experiment","5","dispFeedback_U","1000","1","14","IEV","POS","1","218","0.2543778920087053641","55.5458305361705342307","218","0.0881849576458765549","14","15","10","1","0","20","12","4","43","43","10","31","2","4619","24651","1382","10"
"6.6.1","mac","0","2023-02-23","18:09:07","420494935","1","1","experiment","6","experiment_noU","3872","1","90","IEV","POS","1","","","","","","90","25","1","0","0","0","0","5","38","0","6","24","2","4619","24651","1382","10"
"6.6.1","mac","0","2023-02-23","18:09:07","420494935","1","1","experiment","6","dispFeedback_noU","1000","1","90","IEV","POS","1","220","0.2538141494855993274","55.8149471937399539456","220","0.9954142023332915867","90","25","1","0","0","0","0","5","38","1","6","24","0","4622","24871","1392","10"
"6.6.1","mac","0","2023-02-23","18:09:07","420494935","1","1","experiment","6","experiment_noU","825","1","57","IEV","POS","1","","","","","","57","25","1","0","0","0","0","5","38","1","6","24","0","4622","24871","1392","10"
"6.6.1","mac","0","2023-02-23","18:09:07","420494935","1","1","experiment","6","dispFeedback_noU","1000","1","57","IEV","POS","1","289","0.1987418346330628027","57.5114173296823736337","289","0.7425584322173517382","57","25","1","0","0","0","0","5","38","2","6","24","0","4925","25160","1402","10"
"6.6.1","mac","0","2023-02-23","18:09:07","420494935","1","1","experiment","6","experiment_noU","4942","1","64","IEV","POS","1","","","","","","64","25","1","0","0","0","0","5","38","2","6","24","0","4925","25160","1402","10"
"6.6.1","mac","0","2023-02-23","18:09:07","420494935","1","1","experiment","6","dispFeedback_noU","1000","1","64","IEV","POS","1","186","0.2979746392985780923","55.4632740873371048451","186","0.8757029729605891877","64","25","1","0","0","0","0","5","38","3","6","24","0","4392","25346","1412","10"
"6.6.1","mac","0","2023-02-23","18:09:07","420494935","1","1","experiment","6","experiment_noU","5476","1","61","IEV","POS","1","","","","","","61","25","1","0","0","0","0","5","38","3","6","24","0","4392","25346","1412","10"
"6.6.1","mac","0","2023-02-23","18:09:07","420494935","1","1","experiment","6","dispFeedback_noU","1000","1","61","IEV","POS","1","252","0.2253494796653049137","56.7460888048672273953","252","0.1117792378905646533","61","25","1","0","0","0","0","5","38","4","6","24","0","4776","25598","1422","10"
"6.6.1","mac","0","2023-02-23","18:09:07","420494935","1","1","experiment","6","experiment_noU","1774","1","31","IEV","POS","1","","","","","","31","25","1","0","0","0","0","5","38","4","6","24","0","4776","25598","1422","10"
"6.6.1","mac","0","2023-02-23","18:09:07","420494935","1","1","experiment","6","dispFeedback_noU","1000","1","31","IEV","POS","1","211","0.2628746726914971688","55.5744479015943824152","211","0.4237541329170936288","31","25","1","0","0","0","0","5","38","5","6","24","0","4574","25809","1432","10"
"6.6.1","mac","0","2023-02-23","18:09:07","420494935","1","1","experiment","6","experiment_noU","2315","1","20","IEV","POS","1","","","","","","20","25","1","0","0","0","0","5","38","5","6","24","0","4574","25809","1432","10"
"6.6.1","mac","0","2023-02-23","18:09:07","420494935","1","1","experiment","6","dispFeedback_noU","1000","1","20","IEV","POS","1","208","0.2645830568174629138","54.9990688176214632676","208","0.7179307890399198033","20","25","1","0","0","0","0","5","38","6","6","24","1","4565","26017","1442","10"
"6.6.1","mac","0","2023-02-23","18:09:07","420494935","1","1","experiment","6","experiment_U","3813","1","95","IEV","POS","1","","","","","","95","25","1","0","0","0","0","5","38","6","6","24","1","4565","26017","1442","10"
"6.6.1","mac","0","2023-02-23","18:09:07","420494935","1","1","experiment","6","dispFeedback_U","1000","1","95","IEV","POS","1","261","0.2186540780242388626","57.1132640768865229575","261","0.2288195239912763912","95","25","1","0","0","1","0","5","38","7","6","24","1","4813","26278","1452","10"
"6.6.1","mac","0","2023-02-23","18:09:07","420494935","1","1","experiment","6","experiment_U","611","1","51","IEV","POS","1","","","","","","51","25","1","0","0","1","0","5","38","7","6","24","1","4813","26278","1452","10"
"6.6.1","mac","0","2023-02-23","18:09:07","420494935","1","1","experiment","6","dispFeedback_U","1000","1","51","IEV","POS","1","191","0.2942582772628283827","56.1526184830278864979","191","0.2572371860168029545","51","25","1","0","0","2","0","5","38","8","6","24","1","4411","26469","1462","10"
"6.6.1","mac","0","2023-02-23","18:09:07","420494935","1","1","experiment","6","experiment_U","4671","1","76","IEV","POS","1","","","","","","76","25","1","0","0","2","0","5","38","8","6","24","1","4411","26469","1462","10"
"6.6.1","mac","0","2023-02-23","18:09:07","420494935","1","1","experiment","6","dispFeedback_U","1000","1","76","IEV","POS","1","244","0.235406591236760887","57.4569521943701460032","244","0.203115631640682831","76","25","1","0","0","3","0","5","38","9","6","24","1","4721","26713","1472","10"
"6.6.1","mac","0","2023-02-23","18:09:07","420494935","1","1","experiment","6","experiment_U","4113","1","89","IEV","POS","1","","","","","","89","25","1","0","0","3","0","5","38","9","6","24","1","4721","26713","1472","10"
"6.6.1","mac","0","2023-02-23","18:09:07","420494935","1","1","experiment","6","dispFeedback_U","1000","1","89","IEV","POS","1","262","0.2186540780242388626","57.3319181549107668161","262","0.1480700865267007837","89","25","1","0","0","4","0","5","38","10","6","24","1","4813","26975","1482","10"
"6.6.1","mac","0","2023-02-23","18:09:07","420494935","1","1","experiment","6","experiment_U","3979","1","84","IEV","POS","1","","","","","","84","25","1","0","0","4","0","5","38","10","6","24","1","4813","26975","1482","10"
"6.6.1","mac","0","2023-02-23","18:09:07","420494935","1","1","experiment","6","dispFeedback_U","1000","1","84","IEV","POS","1","191","0.2907482348778835379","55.6581194284119575855","191","0.4169524801934492708","84","25","1","0","0","5","0","5","38","11","6","24","1","4429","27166","1492","10"
"6.6.1","mac","0","2023-02-23","18:09:07","420494935","1","1","experiment","6","experiment_U","1202","1","41","IEV","POS","1","","","","","","41","25","1","0","0","5","0","5","38","11","6","24","1","4429","27166","1492","10"
"6.6.1","mac","0","2023-02-23","18:09:07","420494935","1","1","experiment","6","dispFeedback_U","1000","1","41","IEV","POS","1","202","0.2766236881737427211","55.7479447908051923832","202","0.2501362318289783171","41","25","1","0","0","6","0","5","38","12","6","24","1","4502","27368","1502","10"
"6.6.1","mac","0","2023-02-23","18:09:07","420494935","1","1","experiment","6","experiment_U","2433","1","25","IEV","POS","1","","","","","","25","25","1","0","0","6","0","5","38","12","6","24","1","4502","27368","1502","10"
"6.6.1","mac","0","2023-02-23","18:09:07","420494935","1","1","experiment","6","dispFeedback_U","1000","1","25","IEV","POS","1","296","0.1973403596451298037","58.3274941218383915498","296","0.0427010376105785919","25","25","1","0","0","7","0","5","38","13","6","24","1","4933","27664","1512","10"
"6.6.1","mac","0","2023-02-23","18:09:07","420494935","1","1","experiment","6","experiment_U","2861","1","5","IEV","POS","1","","","","","","5","25","1","0","0","7","0","5","38","13","6","24","1","4933","27664","1512","10"
"6.6.1","mac","0","2023-02-23","18:09:07","420494935","1","1","experiment","6","dispFeedback_U","1000","1","5","IEV","POS","1","186","0.3040625808197507385","56.5114964484367021669","186","0.0416165397133716683","5","25","1","0","0","8","0","5","38","14","6","24","1","4361","27850","1522","10"
"6.6.1","mac","0","2023-02-23","18:09:07","420494935","1","1","experiment","6","experiment_U","2169","1","16","IEV","POS","1","","","","","","16","25","1","0","0","8","0","5","38","14","6","24","1","4361","27850","1522","10"
"6.6.1","mac","0","2023-02-23","18:09:07","420494935","1","1","experiment","6","dispFeedback_U","1000","1","16","IEV","POS","1","163","0.3323102968719975348","54.13673150076861873","163","0.5907064365667072936","16","25","1","0","0","9","0","5","38","15","6","24","1","4219","28013","1532","10"
"6.6.1","mac","0","2023-02-23","18:09:07","420494935","1","1","experiment","6","experiment_U","627","1","56","IEV","POS","1","","","","","","56","25","1","0","0","9","0","5","38","15","6","24","1","4219","28013","1532","10"
"6.6.1","mac","0","2023-02-23","18:09:07","420494935","1","1","experiment","6","dispFeedback_U","1000","1","56","IEV","POS","1","236","0.2435402276645236563","57.5395903084671047623","236","0.2688659986641411814","56","25","1","0","0","10","0","5","38","16","6","24","1","4677","28249","1542","10"
"6.6.1","mac","0","2023-02-23","18:09:07","420494935","1","1","experiment","6","experiment_U","4169","1","81","IEV","POS","1","","","","","","81","25","1","0","0","10","0","5","38","16","6","24","1","4677","28249","1542","10"
"6.6.1","mac","0","2023-02-23","18:09:07","420494935","1","1","experiment","6","dispFeedback_U","1000","1","81","IEV","POS","1","200","0.2829863968949362651","56.7108052750434197264","200","0.602179836622015574","81","25","1","0","0","11","0","5","38","17","6","24","1","4469","28449","1552","10"
"6.6.1","mac","0","2023-02-23","18:09:07","420494935","1","1","experiment","6","experiment_U","1587","1","33","IEV","POS","1","","","","","","33","25","1","0","0","11","0","5","38","17","6","24","1","4469","28449","1552","10"
"6.6.1","mac","0","2023-02-23","18:09:07","420494935","1","1","experiment","6","dispFeedback_U","1000","1","33","IEV","POS","1","200","0.2795111788606884362","55.9511999732585110223","200","0.9026290117536273083","33","25","1","0","0","12","0","5","38","18","6","24","1","4487","28649","1562","10"
"6.6.1","mac","0","2023-02-23","18:09:07","420494935","1","1","experiment","6","experiment_U","4245","1","75","IEV","POS","1","","","","","","75","25","1","0","0","12","0","5","38","18","6","24","1","4487","28649","1562","10"
"6.6.1","mac","0","2023-02-23","18:09:07","420494935","1","1","experiment","6","dispFeedback_U","1000","1","75","IEV","POS","1","172","0.3270963634841780876","56.2628001091404854606","172","0.9705070974236603698","75","25","1","0","0","13","0","5","38","19","6","24","1","4245","28821","1572","10"
"6.6.1","mac","0","2023-02-23","18:09:07","420494935","1","1","experiment","6","experiment_U","677","1","49","IEV","POS","1","","","","","","49","25","1","0","0","13","0","5","38","19","6","24","1","4245","28821","1572","10"
"6.6.1","mac","0","2023-02-23","18:09:07","420494935","1","1","experiment","6","dispFeedback_U","1000","1","49","IEV","POS","1","182","0.3009166818934845278","54.7806832917287209739","182","0.0567746972797379609","49","25","1","0","0","14","0","5","38","20","6","24","1","4377","29003","1582","10"
"6.6.1","mac","0","2023-02-23","18:09:07","420494935","1","1","experiment","6","experiment_U","3053","1","3","IEV","POS","1","","","","","","3","25","1","0","0","14","0","5","38","20","6","24","1","4377","29003","1582","10"
"6.6.1","mac","0","2023-02-23","18:09:07","420494935","1","1","experiment","6","dispFeedback_U","1000","1","3","IEV","POS","1","191","0.2860847193050458648","54.6368739637456144465","191","0.9015906788179629539","3","25","1","0","0","15","0","5","38","21","6","24","1","4453","29194","1592","10"
"6.6.1","mac","0","2023-02-23","18:09:07","420494935","1","1","experiment","6","experiment_U","4514","1","74","IEV","POS","1","","","","","","74","25","1","0","0","15","0","5","38","21","6","24","1","4453","29194","1592","10"
"6.6.1","mac","0","2023-02-23","18:09:07","420494935","1","1","experiment","6","dispFeedback_U","1000","1","74","IEV","POS","1","196","0.2839536946423869002","55.5528168810985150117","196","0.6470129707937625207","74","25","1","0","0","16","0","5","38","22","6","24","0","4464","29390","1602","10"
"6.6.1","mac","0","2023-02-23","18:09:07","420494935","1","1","experiment","6","experiment_noU","4676","1","73","IEV","POS","1","","","","","","73","25","1","0","0","16","0","5","38","22","6","24","0","4464","29390","1602","10"
"6.6.1","mac","0","2023-02-23","18:09:07","420494935","1","1","experiment","6","dispFeedback_noU","1000","1","73","IEV","POS","1","216","0.2624954364078172508","56.6346509040291934411","216","0.5673104088211688989","73","25","1","0","0","16","0","5","38","23","6","24","0","4576","29606","1612","10"
"6.6.1","mac","0","2023-02-23","18:09:07","420494935","1","1","experiment","6","experiment_noU","727","1","51","IEV","POS","1","","","","","","51","25","1","0","0","16","0","5","38","23","6","24","0","4576","29606","1612","10"
"6.6.1","mac","0","2023-02-23","18:09:07","420494935","1","1","experiment","6","dispFeedback_noU","1000","1","51","IEV","POS","1","208","0.2718286986427190244","56.4164841216523953449","208","0.0804323875532561017","51","25","1","0","0","16","0","5","38","24","6","24","2","4527","29814","1622","10"
"6.6.1","mac","0","2023-02-23","18:09:07","420494935","1","1","experiment","6","experiment_U","1173","1","38","IEV","POS","1","","","","","","38","25","1","0","0","16","0","5","38","24","6","24","2","4527","29814","1622","10"
"6.6.1","mac","0","2023-02-23","18:09:07","420494935","1","1","experiment","6","dispFeedback_U","1000","1","38","IEV","POS","1","180","0.3115652681535969193","56.0179785846205930966","180","0.6983578090319311205","38","25","1","0","0","16","1","5","38","25","6","24","2","4323","29994","1632","10"
"6.6.1","mac","0","2023-02-23","18:09:07","420494935","1","1","experiment","6","experiment_U","2429","1","11","IEV","POS","1","","","","","","11","25","1","0","0","16","1","5","38","25","6","24","2","4323","29994","1632","10"
"6.6.1","mac","0","2023-02-23","18:09:07","420494935","1","1","experiment","6","dispFeedback_U","1000","1","11","IEV","POS","1","164","0.3303028427734610584","54.1999882019595133897","164","0.3197592781669831297","11","25","1","0","0","16","2","5","38","26","6","24","2","4229","30158","1642","10"
"6.6.1","mac","0","2023-02-23","18:09:07","420494935","1","1","experiment","6","experiment_U","4617","1","72","IEV","POS","1","","","","","","72","25","1","0","0","16","2","5","38","26","6","24","2","4229","30158","1642","10"
"6.6.1","mac","0","2023-02-23","18:09:07","420494935","1","1","experiment","6","dispFeedback_U","1000","1","72","IEV","POS","1","198","0.2833732143460133135","56.1352024266769547012","198","0.1301043250435274801","72","25","1","0","0","16","3","5","38","27","6","24","2","4467","30356","1652","10"
"6.6.1","mac","0","2023-02-23","18:09:07","420494935","1","1","experiment","6","experiment_U","4901","1","55","IEV","POS","1","","","","","","55","25","1","0","0","16","3","5","38","27","6","24","2","4467","30356","1652","10"
"6.6.1","mac","0","2023-02-23","18:09:07","420494935","1","1","experiment","6","dispFeedback_U","1000","1","55","IEV","POS","1","129","0.3972863723988065421","51.0842783395414627989","129","0.1186325950824265868","55","25","1","0","0","16","4","5","38","28","6","24","2","3901","30485","1661","9"
"6.6.1","mac","0","2023-02-23","18:09:07","420494935","1","1","experiment","6","experiment_U","2185","1","18","IEV","POS","1","","","","","","18","25","1","0","0","16","4","5","38","28","6","24","2","3901","30485","1661","9"
"6.6.1","mac","0","2023-02-23","18:09:07","420494935","1","1","experiment","6","dispFeedback_U","1000","1","18","IEV","POS","1","175","0.3091913294219315045","54.2233606777378014385","175","0.603229955444864463","18","25","1","0","0","16","5","5","38","29","6","24","2","4335","30660","1671","10"
"6.6.1","mac","0","2023-02-23","18:09:07","420494935","1","1","experiment","6","experiment_U","1674","1","32","IEV","POS","1","","","","","","32","25","1","0","0","16","5","5","38","29","6","24","2","4335","30660","1671","10"
"6.6.1","mac","0","2023-02-23","18:09:07","420494935","1","1","experiment","6","dispFeedback_U","1000","1","32","IEV","POS","1","205","0.2724029313526775686","55.8579862331767103001","205","0.0743706911044127034","32","25","1","0","0","16","6","5","38","30","6","24","2","4524","30865","1681","10"
"6.6.1","mac","0","2023-02-23","18:09:07","420494935","1","1","experiment","6","experiment_U","5446","1","58","IEV","POS","1","","","","","","58","25","1","0","0","16","6","5","38","30","6","24","2","4524","30865","1681","10"
"6.6.1","mac","0","2023-02-23","18:09:07","420494935","1","1","experiment","6","dispFeedback_U","1000","1","58","IEV","POS","1","215","0.258711224919280558","55.6859197218388999318","215","0.905975165056524645","58","25","1","0","0","16","7","5","38","31","6","24","2","4596","31080","1691","10"
"6.6.1","mac","0","2023-02-23","18:09:07","420494935","1","1","experiment","6","experiment_U","3230","1","99","IEV","POS","1","","","","","","99","25","1","0","0","16","7","5","38","31","6","24","2","4596","31080","1691","10"
"6.6.1","mac","0","2023-02-23","18:09:07","420494935","1","1","experiment","6","dispFeedback_U","1000","1","99","IEV","POS","1","195","0.2905535420984876604","56.5349604974477983887","195","0.4818310091462524314","99","25","1","0","0","16","8","5","38","32","6","24","2","4430","31275","1701","10"
"6.6.1","mac","0","2023-02-23","18:09:07","420494935","1","1","experiment","6","experiment_U","1208","1","35","IEV","POS","1","","","","","","35","25","1","0","0","16","8","5","38","32","6","24","2","4430","31275","1701","10"
"6.6.1","mac","0","2023-02-23","18:09:07","420494935","1","1","experiment","6","dispFeedback_U","1000","1","35","IEV","POS","1","158","0.3345214698588803159","52.7285200312383963706","158","0.7878521866602479218","35","25","1","0","0","16","9","5","38","33","6","24","2","4208","31433","1711","10"
"6.6.1","mac","0","2023-02-23","18:09:07","420494935","1","1","experiment","6","experiment_U","726","1","54","IEV","POS","1","","","","","","54","25","1","0","0","16","9","5","38","33","6","24","2","4208","31433","1711","10"
