"build","computer.platform","computer.touch","date","time","subject","group","sessionid","blockcode","blocknum","trialcode","latency","randStart","startPos","scrfunc","rtvspos","randStart","mag","freq","ev","inc","rng","startPos","fogPos1","fogPos2","chooseUncertainty1","chooseUncertainty2","uncertaintyCount1","uncertaintyCount2","blockCount","ntrials","trialCount","uncertaintyStart1","uncertaintyStart2","uncertainty_block","rt_shifted","totalPoints","totalEarnings","Earnings"
"6.6.1","mac","0","2023-02-28","13:00:17","780600946","1","1","instructions","1","instructions1","11702","1","75","IEV","POS","1","","","","","","75","0","0","0","0","0","0","0","10","0","0","0","0","","0","0",""
"6.6.1","mac","0","2023-02-28","13:00:17","780600946","1","1","instructions","1","displayGoodJob","1321","1","75","IEV","POS","1","","","","","","75","0","0","0","0","0","0","0","10","0","0","0","0","","0","0",""
"6.6.1","mac","0","2023-02-28","13:00:17","780600946","1","1","instructions","1","feedback2_5","3000","1","75","IEV","POS","1","","","","","","75","0","0","0","0","0","0","0","10","0","0","0","0","","0","0","0"
"6.6.1","mac","0","2023-02-28","13:00:17","780600946","1","1","instructions","1","instructions3","2972","1","75","IEV","POS","1","","","","","","75","0","0","0","0","0","0","0","10","0","0","0","0","","0","0","0"
"6.6.1","mac","0","2023-02-28","13:00:17","780600946","1","1","instructions","1","instructions4","2928","1","75","IEV","POS","1","","","","","","75","0","0","0","0","0","0","0","10","0","0","0","0","","0","0","0"
"6.6.1","mac","0","2023-02-28","13:00:17","780600946","1","1","instructions","1","sampleResponse","3000","1","75","IEV","POS","1","","","","","","75","0","0","0","0","0","0","0","10","0","0","0","0","2928","0","0","0"
"6.6.1","mac","0","2023-02-28","13:00:17","780600946","1","1","instructions","1","instructions5","1981","1","75","IEV","POS","1","","","","","","75","0","0","0","0","0","0","0","10","0","0","0","0","2928","0","0","0"
"6.6.1","mac","0","2023-02-28","13:00:17","780600946","1","1","instructions","1","countdown","1000","1","75","IEV","POS","1","","","","","","75","0","0","0","0","0","0","0","10","0","0","0","0","2928","0","0","0"
"6.6.1","mac","0","2023-02-28","13:00:17","780600946","1","1","experiment","2","experiment_noU","2666","1","6","CEVR","POS","1","","","","","","6","1","50","0","0","0","0","1","40","0","8","30","0","2928","0","0","0"
"6.6.1","mac","0","2023-02-28","13:00:17","780600946","1","1","experiment","2","dispFeedback_noU","1000","1","6","CEVR","POS","1","60","0.6214011516314779104","37","60","0.9381157453027823001","6","1","50","0","0","0","0","1","40","1","8","30","0","4216","60","4","4"
"6.6.1","mac","0","2023-02-28","13:00:17","780600946","1","1","experiment","2","experiment_noU","3784","1","48","CEVR","POS","1","","","","","","48","1","50","0","0","0","0","1","40","1","8","30","0","4216","60","4","4"
"6.6.1","mac","0","2023-02-28","13:00:17","780600946","1","1","experiment","2","dispFeedback_noU","1000","1","48","CEVR","POS","1","106","0.3349715468184170097","35.660113812726336846","106","0.3567029352664721764","48","1","50","0","0","0","0","1","40","2","8","30","0","2434","166","12","8"
"6.6.1","mac","0","2023-02-28","13:00:17","780600946","1","1","experiment","2","experiment_noU","1825","1","64","CEVR","POS","1","","","","","","64","1","50","0","0","0","0","1","40","2","8","30","0","2434","166","12","8"
"6.6.1","mac","0","2023-02-28","13:00:17","780600946","1","1","experiment","2","dispFeedback_noU","1000","1","64","CEVR","POS","1","142","0.2577114427860696666","36.4845771144278643305","142","0.1510988574361193104","64","1","50","0","0","0","0","1","40","3","8","30","0","1275","308","22","10"
"6.6.1","mac","0","2023-02-28","13:00:17","780600946","1","1","experiment","2","experiment_noU","3064","1","91","CEVR","POS","1","","","","","","91","1","50","0","0","0","0","1","40","3","8","30","0","1275","308","22","10"
"6.6.1","mac","0","2023-02-28","13:00:17","780600946","1","1","experiment","2","dispFeedback_noU","1000","1","91","CEVR","POS","1","72","0.5316091954022987842","38.0632183908045931275","72","0.5980440330687081252","91","1","50","0","0","0","0","1","40","4","8","30","0","3864","380","27","5"
"6.6.1","mac","0","2023-02-28","13:00:17","780600946","1","1","experiment","2","experiment_noU","3064","1","40","CEVR","POS","1","","","","","","40","1","50","0","0","0","0","1","40","4","8","30","0","3864","380","27","5"
"6.6.1","mac","0","2023-02-28","13:00:17","780600946","1","1","experiment","2","dispFeedback_noU","1000","1","40","CEVR","POS","1","143","0.2597272362615322683","37.259727236261525718","143","0.0502801041701529394","40","1","50","0","0","0","0","1","40","5","8","30","0","1314","523","37","10"
"6.6.1","mac","0","2023-02-28","13:00:17","780600946","1","1","experiment","2","experiment_noU","2363","1","54","CEVR","POS","1","","","","","","54","1","50","0","0","0","0","1","40","5","8","30","0","1314","523","37","10"
"6.6.1","mac","0","2023-02-28","13:00:17","780600946","1","1","experiment","2","dispFeedback_noU","1000","1","54","CEVR","POS","1","139","0.2596751554040505061","36.2209745337878459281","139","0.8231839511597491832","54","1","50","0","0","0","0","1","40","6","8","30","0","1313","662","47","10"
"6.6.1","mac","0","2023-02-28","13:00:17","780600946","1","1","experiment","2","experiment_noU","6500","1","97","CEVR","POS","1","","","","","","97","1","50","0","0","0","0","1","40","6","8","30","0","1313","662","47","10"
"6.6.1","mac","0","2023-02-28","13:00:17","780600946","1","1","experiment","2","dispFeedback_noU","1000","1","97","CEVR","POS","1","109","0.3499999999999999778","38.0499999999999971578","109","0.9302207345446154019","97","1","50","0","0","0","0","1","40","7","8","30","0","2600","771","47","0"
"6.6.1","mac","0","2023-02-28","13:00:17","780600946","1","1","experiment","2","experiment_noU","2989","1","37","CEVR","POS","1","","","","","","37","1","50","0","0","0","0","1","40","7","8","30","0","2600","771","47","0"
"6.6.1","mac","0","2023-02-28","13:00:17","780600946","1","1","experiment","2","dispFeedback_noU","1000","1","37","CEVR","POS","1","146","0.248512761466129356","36.2544617156016144577","146","0.0859298811028548215","37","1","50","0","0","0","0","1","40","8","8","30","1","1089","917","57","10"
"6.6.1","mac","0","2023-02-28","13:00:17","780600946","1","1","experiment","2","experiment_U","2080","1","34","CEVR","POS","1","","","","","","34","1","50","0","0","0","0","1","40","8","8","30","1","1089","917","57","10"
"6.6.1","mac","0","2023-02-28","13:00:17","780600946","1","1","experiment","2","dispFeedback_U","1000","1","34","CEVR","POS","1","174","0.2065390749601276055","35.9673046251993611122","1","0.2798075008391885943","34","1","50","1","0","1","0","1","40","9","8","30","1","30","918","58","1"
"6.6.1","mac","0","2023-02-28","13:00:17","780600946","1","1","experiment","2","experiment_U","2294","1","29","CEVR","POS","1","","","","","","29","1","50","1","0","1","0","1","40","9","8","30","1","30","918","58","1"
"6.6.1","mac","0","2023-02-28","13:00:17","780600946","1","1","experiment","2","dispFeedback_U","1000","1","29","CEVR","POS","1","35","0.9915773353751913266","35.0168453292496266727","35","0.9032135922236399495","29","1","50","2","0","2","0","1","40","10","8","30","1","4994","953","61","3"
"6.6.1","mac","0","2023-02-28","13:00:17","780600946","1","1","experiment","2","experiment_U","1504","1","96","CEVR","POS","1","","","","","","96","1","50","2","0","2","0","1","40","10","8","30","1","4994","953","61","3"
"6.6.1","mac","0","2023-02-28","13:00:17","780600946","1","1","experiment","2","dispFeedback_U","1000","1","96","CEVR","POS","1","108","0.3457020822210357114","37.3457020822210310484","1","0.5582460152353733163","96","1","50","2","0","3","0","1","40","11","8","30","1","2554","954","62","1"
"6.6.1","mac","0","2023-02-28","13:00:17","780600946","1","1","experiment","2","experiment_U","1681","1","66","CEVR","POS","1","","","","","","66","1","50","2","0","3","0","1","40","11","8","30","1","2554","954","62","1"
"6.6.1","mac","0","2023-02-28","13:00:17","780600946","1","1","experiment","2","dispFeedback_U","1000","1","66","CEVR","POS","1","146","0.2554744525547445466","37.2554744525547505418","1","0.8681682899753023763","66","1","50","2","0","4","0","1","40","12","8","30","1","1231","955","63","1"
"6.6.1","mac","0","2023-02-28","13:00:17","780600946","1","1","experiment","2","experiment_U","1904","1","14","CEVR","POS","1","","","","","","14","1","50","2","0","4","0","1","40","12","8","30","1","1231","955","63","1"
"6.6.1","mac","0","2023-02-28","13:00:17","780600946","1","1","experiment","2","dispFeedback_U","1000","1","14","CEVR","POS","1","74","0.5294358135731807025","39.1177432542927263626","1","0.970943826243966801","14","1","50","2","0","5","0","1","40","13","8","30","1","3854","956","64","1"
"6.6.1","mac","0","2023-02-28","13:00:17","780600946","1","1","experiment","2","experiment_U","2560","1","12","CEVR","POS","1","","","","","","12","1","50","2","0","5","0","1","40","13","8","30","1","3854","956","64","1"
"6.6.1","mac","0","2023-02-28","13:00:17","780600946","1","1","experiment","2","dispFeedback_U","1000","1","12","CEVR","POS","1","55","0.6851851851851852304","37.6851851851851904485","55","0.6257356308926212973","12","1","50","2","0","6","0","1","40","14","8","30","1","4410","1011","68","4"
"6.6.1","mac","0","2023-02-28","13:00:17","780600946","1","1","experiment","2","experiment_U","547","1","61","CEVR","POS","1","","","","","","61","1","50","2","0","6","0","1","40","14","8","30","1","4410","1011","68","4"
"6.6.1","mac","0","2023-02-28","13:00:17","780600946","1","1","experiment","2","dispFeedback_U","1000","1","61","CEVR","POS","1","45","0.8912594631796284528","39.6737783895388815836","45","0.1953256738361263956","61","1","50","3","0","7","0","1","40","15","8","30","1","4847","1056","71","3"
"6.6.1","mac","0","2023-02-28","13:00:17","780600946","1","1","experiment","2","experiment_U","561","1","71","CEVR","POS","1","","","","","","71","1","50","3","0","7","0","1","40","15","8","30","1","4847","1056","71","3"
"6.6.1","mac","0","2023-02-28","13:00:17","780600946","1","1","experiment","2","dispFeedback_U","1000","1","71","CEVR","POS","1","168","0.2180501767974406535","36.563899646405118915","1","0.9040238726660664303","71","1","50","3","0","8","0","1","40","16","8","30","1","361","1057","72","1"
"6.6.1","mac","0","2023-02-28","13:00:17","780600946","1","1","experiment","2","experiment_U","955","1","18","CEVR","POS","1","","","","","","18","1","50","3","0","8","0","1","40","16","8","30","1","361","1057","72","1"
"6.6.1","mac","0","2023-02-28","13:00:17","780600946","1","1","experiment","2","dispFeedback_U","1000","1","18","CEVR","POS","1","89","0.4053208137715179626","36.1893583724569580795","89","0.0259583732173681199","18","1","50","3","0","9","0","1","40","17","8","30","1","3105","1146","79","7"
"6.6.1","mac","0","2023-02-28","13:00:17","780600946","1","1","experiment","2","experiment_U","847","1","26","CEVR","POS","1","","","","","","26","1","50","3","0","9","0","1","40","17","8","30","1","3105","1146","79","7"
"6.6.1","mac","0","2023-02-28","13:00:17","780600946","1","1","experiment","2","dispFeedback_U","1000","1","26","CEVR","POS","1","83","0.4460902514640027738","37","1","0.4720049094110738697","26","1","50","3","0","10","0","1","40","18","8","30","1","3397","1147","80","1"
"6.6.1","mac","0","2023-02-28","13:00:17","780600946","1","1","experiment","2","experiment_U","6500","1","11","CEVR","POS","1","","","","","","11","1","50","3","0","10","0","1","40","18","8","30","1","3397","1147","80","1"
"6.6.1","mac","0","2023-02-28","13:00:17","780600946","1","1","experiment","2","dispFeedback_U","1000","1","11","CEVR","POS","1","81","0.431666666666666643","34.8416666666666685614","81","0.2804878091627004966","11","1","50","3","0","11","0","1","40","19","8","30","1","3300","1228","80","0"
"6.6.1","mac","0","2023-02-28","13:00:17","780600946","1","1","experiment","2","experiment_U","1705","1","17","CEVR","POS","1","","","","","","17","1","50","3","0","11","0","1","40","19","8","30","1","3300","1228","80","0"
"6.6.1","mac","0","2023-02-28","13:00:17","780600946","1","1","experiment","2","dispFeedback_U","1000","1","17","CEVR","POS","1","67","0.5190380761523045727","34.9238476953907834854","1","0.5920298778433422671","17","1","50","3","0","12","0","1","40","20","8","30","1","3805","1229","81","1"
"6.6.1","mac","0","2023-02-28","13:00:17","780600946","1","1","experiment","2","experiment_U","2549","1","92","CEVR","POS","1","","","","","","92","1","50","3","0","12","0","1","40","20","8","30","1","3805","1229","81","1"
"6.6.1","mac","0","2023-02-28","13:00:17","780600946","1","1","experiment","2","dispFeedback_U","1000","1","92","CEVR","POS","1","85","0.4463977938641847665","37.8927955877283793029","85","0.2909796827684574816","92","1","50","3","0","13","0","1","40","21","8","30","1","3399","1314","87","6"
"6.6.1","mac","0","2023-02-28","13:00:17","780600946","1","1","experiment","2","experiment_U","1630","1","3","CEVR","POS","1","","","","","","3","1","50","3","0","13","0","1","40","21","8","30","1","3399","1314","87","6"
"6.6.1","mac","0","2023-02-28","13:00:17","780600946","1","1","experiment","2","dispFeedback_U","1000","1","3","CEVR","POS","1","91","0.3960244648318043126","36.2079510703363993684","91","0.3116759926340719744","3","1","50","3","0","14","0","1","40","22","8","30","1","3030","1405","94","7"
"6.6.1","mac","0","2023-02-28","13:00:17","780600946","1","1","experiment","2","experiment_U","1460","1","7","CEVR","POS","1","","","","","","7","1","50","3","0","14","0","1","40","22","8","30","1","3030","1405","94","7"
"6.6.1","mac","0","2023-02-28","13:00:17","780600946","1","1","experiment","2","dispFeedback_U","1000","1","7","CEVR","POS","1","92","0.3996913580246913011","36.6003086419753032033","1","0.7282372665890113339","7","1","50","3","0","15","0","1","40","23","8","30","1","3060","1406","95","1"
"6.6.1","mac","0","2023-02-28","13:00:17","780600946","1","1","experiment","2","experiment_U","4712","1","44","CEVR","POS","1","","","","","","44","1","50","3","0","15","0","1","40","23","8","30","1","3060","1406","95","1"
"6.6.1","mac","0","2023-02-28","13:00:17","780600946","1","1","experiment","2","dispFeedback_U","1000","1","44","CEVR","POS","1","90","0.4126832377310388766","37","1","0.5913118483944125314","44","1","50","3","0","16","0","1","40","24","8","30","1","3162","1407","96","1"
"6.6.1","mac","0","2023-02-28","13:00:17","780600946","1","1","experiment","2","experiment_U","6500","1","87","CEVR","POS","1","","","","","","87","1","50","3","0","16","0","1","40","24","8","30","1","3162","1407","96","1"
"6.6.1","mac","0","2023-02-28","13:00:17","780600946","1","1","experiment","2","dispFeedback_U","1000","1","87","CEVR","POS","1","124","0.3083333333333333481","38.2333333333333342807","124","0.15703042064724268","87","1","50","3","0","17","0","1","40","25","8","30","1","2100","1531","96","0"
"6.6.1","mac","0","2023-02-28","13:00:17","780600946","1","1","experiment","2","experiment_U","2348","1","29","CEVR","POS","1","","","","","","29","1","50","3","0","17","0","1","40","25","8","30","1","2100","1531","96","0"
"6.6.1","mac","0","2023-02-28","13:00:17","780600946","1","1","experiment","2","dispFeedback_U","1000","1","29","CEVR","POS","1","175","0.2071337172104926461","36.1714651311580297488","1","0.6249786789121521968","29","1","50","4","0","18","0","1","40","26","8","30","0","48","1532","97","1"
"6.6.1","mac","0","2023-02-28","13:00:17","780600946","1","1","experiment","2","experiment_noU","2989","1","41","CEVR","POS","1","","","","","","41","1","50","4","0","18","0","1","40","26","8","30","0","48","1532","97","1"
"6.6.1","mac","0","2023-02-28","13:00:17","780600946","1","1","experiment","2","dispFeedback_noU","1000","1","41","CEVR","POS","1","144","0.2584314508082218853","37.2584314508082172779","144","0.0057309030102870671","41","1","50","4","0","18","0","1","40","27","8","30","0","1289","1676","107","10"
"6.6.1","mac","0","2023-02-28","13:00:17","780600946","1","1","experiment","2","experiment_noU","3591","1","27","CEVR","POS","1","","","","","","27","1","50","4","0","18","0","1","40","27","8","30","0","1289","1676","107","10"
"6.6.1","mac","0","2023-02-28","13:00:17","780600946","1","1","experiment","2","dispFeedback_noU","1000","1","27","CEVR","POS","1","145","0.2534742611078489305","36.7465257388921529014","145","0.3161966545312192012","27","1","50","4","0","18","0","1","40","28","8","30","0","1191","1821","117","10"
"6.6.1","mac","0","2023-02-28","13:00:17","780600946","1","1","experiment","2","experiment_noU","5195","1","96","CEVR","POS","1","","","","","","96","1","50","4","0","18","0","1","40","28","8","30","0","1191","1821","117","10"
"6.6.1","mac","0","2023-02-28","13:00:17","780600946","1","1","experiment","2","dispFeedback_noU","1000","1","96","CEVR","POS","1","149","0.2561819980217606707","38.2809099901088103479","149","0.5431234055531963811","96","1","50","4","0","18","0","1","40","29","8","30","0","1245","1970","127","10"
"6.6.1","mac","0","2023-02-28","13:00:17","780600946","1","1","experiment","2","experiment_noU","3723","1","27","CEVR","POS","1","","","","","","27","1","50","4","0","18","0","1","40","29","8","30","0","1245","1970","127","10"
"6.6.1","mac","0","2023-02-28","13:00:17","780600946","1","1","experiment","2","dispFeedback_noU","1000","1","27","CEVR","POS","1","139","0.2601969057665260432","36.2194092827004325841","139","0.9477353228600079449","27","1","50","4","0","18","0","1","40","30","8","30","2","1323","2109","137","10"
"6.6.1","mac","0","2023-02-28","13:00:17","780600946","1","1","experiment","2","experiment_U","1360","1","56","CEVR","POS","1","","","","","","56","1","50","4","0","18","0","1","40","30","8","30","2","1323","2109","137","10"
"6.6.1","mac","0","2023-02-28","13:00:17","780600946","1","1","experiment","2","dispFeedback_U","1000","1","56","CEVR","POS","1","164","0.219864176570458425","36.120543293718171185","1","0.252880796150509457","56","1","50","4","1","18","1","1","40","31","8","30","2","410","2110","138","1"
"6.6.1","mac","0","2023-02-28","13:00:17","780600946","1","1","experiment","2","experiment_U","2508","1","33","CEVR","POS","1","","","","","","33","1","50","4","1","18","1","1","40","31","8","30","2","410","2110","138","1"
"6.6.1","mac","0","2023-02-28","13:00:17","780600946","1","1","experiment","2","dispFeedback_U","1000","1","33","CEVR","POS","1","170","0.2197895451459606075","37.4395790902919216592","1","0.3057155062690646297","33","1","50","4","2","18","2","1","40","32","8","30","2","408","2111","139","1"
"6.6.1","mac","0","2023-02-28","13:00:17","780600946","1","1","experiment","2","experiment_U","3771","1","26","CEVR","POS","1","","","","","","26","1","50","4","2","18","2","1","40","32","8","30","2","408","2111","139","1"
"6.6.1","mac","0","2023-02-28","13:00:17","780600946","1","1","experiment","2","dispFeedback_U","1000","1","26","CEVR","POS","1","138","0.2600923880297248414","35.959630447881103521","138","0.1453224977351078862","26","1","50","4","2","18","3","1","40","33","8","30","2","1321","2249","149","10"
"6.6.1","mac","0","2023-02-28","13:00:17","780600946","1","1","experiment","2","experiment_U","4475","1","11","CEVR","POS","1","","","","","","11","1","50","4","2","18","3","1","40","33","8","30","2","1321","2249","149","10"
"6.6.1","mac","0","2023-02-28","13:00:17","780600946","1","1","experiment","2","dispFeedback_U","1000","1","11","CEVR","POS","1","144","0.2577114427860696666","37.0000000000000071054","1","0.9345965694949488478","11","1","50","4","2","18","4","1","40","34","8","30","2","1275","2250","150","1"
"6.6.1","mac","0","2023-02-28","13:00:17","780600946","1","1","experiment","2","experiment_U","3289","1","73","CEVR","POS","1","","","","","","73","1","50","4","2","18","4","1","40","34","8","30","2","1275","2250","150","1"
"6.6.1","mac","0","2023-02-28","13:00:17","780600946","1","1","experiment","2","dispFeedback_U","1000","1","73","CEVR","POS","1","91","0.4162648666023786581","37.83252973320475121","1","0.713602785187215316","73","1","50","4","2","18","5","1","40","35","8","30","2","3189","2251","151","1"
"6.6.1","mac","0","2023-02-28","13:00:17","780600946","1","1","experiment","2","experiment_U","2972","1","39","CEVR","POS","1","","","","","","39","1","50","4","2","18","5","1","40","35","8","30","2","3189","2251","151","1"
"6.6.1","mac","0","2023-02-28","13:00:17","780600946","1","1","experiment","2","dispFeedback_U","1000","1","39","CEVR","POS","1","145","0.2525351014040561615","36.4949297971918937833","1","0.43621337447227293","39","1","50","4","2","18","6","1","40","36","8","30","2","1172","2252","152","1"
"6.6.1","mac","0","2023-02-28","13:00:17","780600946","1","1","experiment","2","experiment_U","1968","1","99","CEVR","POS","1","","","","","","99","1","50","4","2","18","6","1","40","36","8","30","2","1172","2252","152","1"
"6.6.1","mac","0","2023-02-28","13:00:17","780600946","1","1","experiment","2","dispFeedback_U","1000","1","99","CEVR","POS","1","85","0.4134738186462324494","35.3461047254150670938","1","0.8779179001874098942","99","1","50","4","2","18","7","1","40","37","8","30","2","3168","2253","153","1"
"6.6.1","mac","0","2023-02-28","13:00:17","780600946","1","1","experiment","2","experiment_U","523","1","72","CEVR","POS","1","","","","","","72","1","50","4","2","18","7","1","40","37","8","30","2","3168","2253","153","1"
"6.6.1","mac","0","2023-02-28","13:00:17","780600946","1","1","experiment","2","dispFeedback_U","1000","1","72","CEVR","POS","1","171","0.2184916483887295591","37.4369832967774627264","1","0.9603475739621435414","72","1","50","4","3","18","8","1","40","38","8","30","2","373","2254","154","1"
"6.6.1","mac","0","2023-02-28","13:00:17","780600946","1","1","experiment","2","experiment_U","3819","1","6","CEVR","POS","1","","","","","","6","1","50","4","3","18","8","1","40","38","8","30","2","373","2254","154","1"
"6.6.1","mac","0","2023-02-28","13:00:17","780600946","1","1","experiment","2","dispFeedback_U","1000","1","6","CEVR","POS","1","165","0.2183442926993761635","36.1266228292024962343","1","0.838411302035304562","6","1","50","4","4","18","9","1","40","39","8","30","0","369","2255","155","1"
"6.6.1","mac","0","2023-02-28","13:00:17","780600946","1","1","experiment","2","experiment_noU","1385","1","76","CEVR","POS","1","","","","","","76","1","50","4","4","18","9","1","40","39","8","30","0","369","2255","155","1"
"6.6.1","mac","0","2023-02-28","13:00:17","780600946","1","1","experiment","2","dispFeedback_noU","1000","1","76","CEVR","POS","1","134","0.2661870503597122406","35.6690647482014426828","134","0.7374171576782635462","76","1","50","4","4","18","9","1","40","40","8","30","0","1435","2389","164","9"
"6.6.1","mac","0","2023-02-28","13:00:17","780600946","1","1","experiment","3","experiment_noU","4592","1","9","DEV","POS","1","","","","","","9","45","5","0","0","0","0","2","38","0","6","26","0","1435","2389","164","9"
"6.6.1","mac","0","2023-02-28","13:00:17","780600946","1","1","experiment","3","dispFeedback_noU","1000","1","9","DEV","POS","1","77","0.5856644011812155437","45.0779707207095299282","77","0.0549938439053934622","9","45","5","0","0","0","0","2","38","1","6","26","0","1292","2466","170","6"
"6.6.1","mac","0","2023-02-28","13:00:17","780600946","1","1","experiment","3","experiment_noU","698","1","4","DEV","POS","1","","","","","","4","45","5","0","0","0","0","2","38","1","6","26","0","1292","2466","170","6"
"6.6.1","mac","0","2023-02-28","13:00:17","780600946","1","1","experiment","3","dispFeedback_noU","1000","1","4","DEV","POS","1","76","0.4484691063671342182","33.87902582227023629","76","0.6391057159377042662","4","45","5","0","0","0","0","2","38","2","6","26","0","2148","2542","176","6"
"6.6.1","mac","0","2023-02-28","13:00:17","780600946","1","1","experiment","3","experiment_noU","1120","1","100","DEV","POS","1","","","","","","100","45","5","0","0","0","0","2","38","2","6","26","0","2148","2542","176","6"
"6.6.1","mac","0","2023-02-28","13:00:17","780600946","1","1","experiment","3","dispFeedback_noU","1000","1","100","DEV","POS","1","80","0.4215393893866521413","33.8472221673974900114","80","0.6631656937913888994","100","45","5","0","0","0","0","2","38","3","6","26","0","2370","2622","182","6"
"6.6.1","mac","0","2023-02-28","13:00:17","780600946","1","1","experiment","3","experiment_noU","877","1","93","DEV","POS","1","","","","","","93","45","5","0","0","0","0","2","38","3","6","26","0","2370","2622","182","6"
"6.6.1","mac","0","2023-02-28","13:00:17","780600946","1","1","experiment","3","dispFeedback_noU","1000","1","93","DEV","POS","1","76","0.5009901417764344167","38.1494144973955329192","76","0.7611069387665733155","93","45","5","0","0","0","0","2","38","4","6","26","0","1777","2698","188","6"
"6.6.1","mac","0","2023-02-28","13:00:17","780600946","1","1","experiment","3","experiment_noU","4638","1","8","DEV","POS","1","","","","","","8","45","5","0","0","0","0","2","38","4","6","26","0","1777","2698","188","6"
"6.6.1","mac","0","2023-02-28","13:00:17","780600946","1","1","experiment","3","dispFeedback_noU","1000","1","8","DEV","POS","1","77","0.5864421999781763706","45.1260492861697741773","77","0.8640607327371977453","8","45","5","0","0","0","0","2","38","5","6","26","0","1288","2775","194","6"
"6.6.1","mac","0","2023-02-28","13:00:17","780600946","1","1","experiment","3","experiment_noU","3355","1","35","DEV","POS","1","","","","","","35","45","5","0","0","0","0","2","38","5","6","26","0","1288","2775","194","6"
"6.6.1","mac","0","2023-02-28","13:00:17","780600946","1","1","experiment","3","dispFeedback_noU","1000","1","35","DEV","POS","1","74","0.5735873387934988799","42.6062460657124546515","74","0.181128830691131032","35","45","5","0","0","0","0","2","38","6","6","26","1","1355","2849","199","5"
"6.6.1","mac","0","2023-02-28","13:00:17","780600946","1","1","experiment","3","experiment_U","3889","1","13","DEV","POS","1","","","","","","13","45","5","0","0","0","0","2","38","6","6","26","1","1355","2849","199","5"
"6.6.1","mac","0","2023-02-28","13:00:17","780600946","1","1","experiment","3","dispFeedback_U","1000","1","13","DEV","POS","1","70","0.6936605912098265936","48.5968901220488476156","70","0.5235124357332271439","13","45","5","1","0","1","0","2","38","7","6","26","1","789","2919","204","5"
"6.6.1","mac","0","2023-02-28","13:00:17","780600946","1","1","experiment","3","experiment_U","1564","1","67","DEV","POS","1","","","","","","67","45","5","1","0","1","0","2","38","7","6","26","1","789","2919","204","5"
"6.6.1","mac","0","2023-02-28","13:00:17","780600946","1","1","experiment","3","dispFeedback_U","1000","1","67","DEV","POS","1","79","0.6112051829565336991","48.4715047642717919985","1","0.9206898726803925959","67","45","5","2","0","2","0","2","38","8","6","26","1","1164","2920","205","1"
"6.6.1","mac","0","2023-02-28","13:00:17","780600946","1","1","experiment","3","experiment_U","1169","1","77","DEV","POS","1","","","","","","77","45","5","2","0","2","0","2","38","8","6","26","1","1164","2920","205","1"
"6.6.1","mac","0","2023-02-28","13:00:17","780600946","1","1","experiment","3","dispFeedback_U","1000","1","77","DEV","POS","1","74","0.5901546862458401099","43.5845823780161296668","74","0.1348258606472112764","77","45","5","2","0","3","0","2","38","9","6","26","1","1269","2994","210","5"
"6.6.1","mac","0","2023-02-28","13:00:17","780600946","1","1","experiment","3","experiment_U","1085","1","65","DEV","POS","1","","","","","","65","45","5","2","0","3","0","2","38","9","6","26","1","1269","2994","210","5"
"6.6.1","mac","0","2023-02-28","13:00:17","780600946","1","1","experiment","3","dispFeedback_U","1000","1","65","DEV","POS","1","74","0.7430836093509405327","54.6799114059488928774","74","0.0151791425922836974","65","45","5","3","0","4","0","2","38","10","6","26","1","585","3068","215","5"
"6.6.1","mac","0","2023-02-28","13:00:17","780600946","1","1","experiment","3","experiment_U","2616","1","39","DEV","POS","1","","","","","","39","45","5","3","0","4","0","2","38","10","6","26","1","585","3068","215","5"
"6.6.1","mac","0","2023-02-28","13:00:17","780600946","1","1","experiment","3","dispFeedback_U","1000","1","39","DEV","POS","1","77","0.6873530480320341196","53.0899848216215417551","77","0.2998609082540173443","39","45","5","4","0","5","0","2","38","11","6","26","0","816","3145","221","6"
"6.6.1","mac","0","2023-02-28","13:00:17","780600946","1","1","experiment","3","experiment_noU","791","1","5","DEV","POS","1","","","","","","5","45","5","4","0","5","0","2","38","11","6","26","0","816","3145","221","6"
"6.6.1","mac","0","2023-02-28","13:00:17","780600946","1","1","experiment","3","dispFeedback_noU","1000","1","5","DEV","POS","1","77","0.4307684675090079907","33.1836589943152659998","77","0.9549083181086248651","5","45","5","4","0","5","0","2","38","12","6","26","0","2291","3222","227","6"
"6.6.1","mac","0","2023-02-28","13:00:17","780600946","1","1","experiment","3","experiment_noU","4591","1","9","DEV","POS","1","","","","","","9","45","5","4","0","5","0","2","38","12","6","26","0","2291","3222","227","6"
"6.6.1","mac","0","2023-02-28","13:00:17","780600946","1","1","experiment","3","dispFeedback_noU","1000","1","9","DEV","POS","1","72","0.5858587277072286881","42.1606923934114163899","72","0.8618488560574708579","9","45","5","4","0","5","0","2","38","13","6","26","0","1291","3294","232","5"
"6.6.1","mac","0","2023-02-28","13:00:17","780600946","1","1","experiment","3","experiment_noU","705","1","81","DEV","POS","1","","","","","","81","45","5","4","0","5","0","2","38","13","6","26","0","1291","3294","232","5"
"6.6.1","mac","0","2023-02-28","13:00:17","780600946","1","1","experiment","3","dispFeedback_noU","1000","1","81","DEV","POS","1","79","0.6447940960056579573","51.2051650177927015761","79","0.0129946980189985361","81","45","5","4","0","5","0","2","38","14","6","26","0","1005","3373","238","6"
"6.6.1","mac","0","2023-02-28","13:00:17","780600946","1","1","experiment","3","experiment_noU","716","1","85","DEV","POS","1","","","","","","85","45","5","4","0","5","0","2","38","14","6","26","0","1005","3373","238","6"
"6.6.1","mac","0","2023-02-28","13:00:17","780600946","1","1","experiment","3","dispFeedback_noU","1000","1","85","DEV","POS","1","76","0.6006671949832704804","45.39839631438398726","76","0.5548645163781159573","85","45","5","4","0","5","0","2","38","15","6","26","0","1216","3449","244","6"
"6.6.1","mac","0","2023-02-28","13:00:17","780600946","1","1","experiment","3","experiment_noU","1711","1","64","DEV","POS","1","","","","","","64","45","5","4","0","5","0","2","38","15","6","26","0","1216","3449","244","6"
"6.6.1","mac","0","2023-02-28","13:00:17","780600946","1","1","experiment","3","dispFeedback_noU","1000","1","64","DEV","POS","1","73","0.6118198963596730433","44.8394802903245590642","73","0.2646260029321131357","64","45","5","4","0","5","0","2","38","16","6","26","0","1161","3522","249","5"
"6.6.1","mac","0","2023-02-28","13:00:17","780600946","1","1","experiment","3","experiment_noU","3211","1","36","DEV","POS","1","","","","","","36","45","5","4","0","5","0","2","38","16","6","26","0","1161","3522","249","5"
"6.6.1","mac","0","2023-02-28","13:00:17","780600946","1","1","experiment","3","dispFeedback_noU","1000","1","36","DEV","POS","1","73","0.5917267061574609244","43.0848630729650210469","73","0.3461487503596927806","36","45","5","4","0","5","0","2","38","17","6","26","0","1261","3595","254","5"
"6.6.1","mac","0","2023-02-28","13:00:17","780600946","1","1","experiment","3","experiment_noU","2972","1","41","DEV","POS","1","","","","","","41","45","5","4","0","5","0","2","38","17","6","26","0","1261","3595","254","5"
"6.6.1","mac","0","2023-02-28","13:00:17","780600946","1","1","experiment","3","dispFeedback_noU","1000","1","41","DEV","POS","1","77","0.5895665335186046629","45.3188211406435854656","77","0.038286131349924514","41","45","5","4","0","5","0","2","38","18","6","26","0","1272","3672","260","6"
"6.6.1","mac","0","2023-02-28","13:00:17","780600946","1","1","experiment","3","experiment_noU","5255","1","92","DEV","POS","1","","","","","","92","45","5","4","0","5","0","2","38","18","6","26","0","1272","3672","260","6"
"6.6.1","mac","0","2023-02-28","13:00:17","780600946","1","1","experiment","3","dispFeedback_noU","1000","1","92","DEV","POS","1","75","0.6234294113160224748","46.7467064917384789169","75","0.2113396111436513236","92","45","5","4","0","5","0","2","38","19","6","26","0","1105","3747","266","6"
"6.6.1","mac","0","2023-02-28","13:00:17","780600946","1","1","experiment","3","experiment_noU","3623","1","29","DEV","POS","1","","","","","","29","45","5","4","0","5","0","2","38","19","6","26","0","1105","3747","266","6"
"6.6.1","mac","0","2023-02-28","13:00:17","780600946","1","1","experiment","3","dispFeedback_noU","1000","1","29","DEV","POS","1","73","0.5796810055781327353","42.3882277089542185422","73","0.9461486032107259136","29","45","5","4","0","5","0","2","38","20","6","26","0","1323","3820","271","5"
"6.6.1","mac","0","2023-02-28","13:00:17","780600946","1","1","experiment","3","experiment_noU","1643","1","69","DEV","POS","1","","","","","","69","45","5","4","0","5","0","2","38","20","6","26","0","1323","3820","271","5"
"6.6.1","mac","0","2023-02-28","13:00:17","780600946","1","1","experiment","3","dispFeedback_noU","1000","1","69","DEV","POS","1","73","0.5758626172540166621","42.1656662616254465092","73","0.3948186469252264463","69","45","5","4","0","5","0","2","38","21","6","26","0","1343","3893","276","5"
"6.6.1","mac","0","2023-02-28","13:00:17","780600946","1","1","experiment","3","experiment_noU","2464","1","49","DEV","POS","1","","","","","","49","45","5","4","0","5","0","2","38","21","6","26","0","1343","3893","276","5"
"6.6.1","mac","0","2023-02-28","13:00:17","780600946","1","1","experiment","3","dispFeedback_noU","1000","1","49","DEV","POS","1","73","0.6112051829565336991","44.8042736665325875833","73","0.6522630554745586506","49","45","5","4","0","5","0","2","38","22","6","26","0","1164","3966","281","5"
"6.6.1","mac","0","2023-02-28","13:00:17","780600946","1","1","experiment","3","experiment_noU","907","1","85","DEV","POS","1","","","","","","85","45","5","4","0","5","0","2","38","22","6","26","0","1164","3966","281","5"
"6.6.1","mac","0","2023-02-28","13:00:17","780600946","1","1","experiment","3","dispFeedback_noU","1000","1","85","DEV","POS","1","79","0.5638641966246078496","44.2803704670634417084","79","0.1834873876495956013","85","45","5","4","0","5","0","2","38","23","6","26","0","1407","4045","287","6"
"6.6.1","mac","0","2023-02-28","13:00:17","780600946","1","1","experiment","3","experiment_noU","1227","1","8","DEV","POS","1","","","","","","8","45","5","4","0","5","0","2","38","23","6","26","0","1407","4045","287","6"
"6.6.1","mac","0","2023-02-28","13:00:17","780600946","1","1","experiment","3","dispFeedback_noU","1000","1","8","DEV","POS","1","79","0.3701637338624190754","29.1773409963221297403","79","0.2695626002432691126","8","45","5","4","0","5","0","2","38","24","6","26","0","2877","4124","293","6"
"6.6.1","mac","0","2023-02-28","13:00:17","780600946","1","1","experiment","3","experiment_noU","977","1","82","DEV","POS","1","","","","","","82","45","5","4","0","5","0","2","38","24","6","26","0","2877","4124","293","6"
"6.6.1","mac","0","2023-02-28","13:00:17","780600946","1","1","experiment","3","dispFeedback_noU","1000","1","82","DEV","POS","1","73","0.578914701514175678","42.3436283304476859257","73","0.3943135653143547414","82","45","5","4","0","5","0","2","38","25","6","26","0","1327","4197","298","5"
"6.6.1","mac","0","2023-02-28","13:00:17","780600946","1","1","experiment","3","experiment_noU","870","1","92","DEV","POS","1","","","","","","92","45","5","4","0","5","0","2","38","25","6","26","0","1327","4197","298","5"
"6.6.1","mac","0","2023-02-28","13:00:17","780600946","1","1","experiment","3","dispFeedback_noU","1000","1","92","DEV","POS","1","76","0.5099680779617112858","38.7143430088477060735","76","0.0755023923878330727","92","45","5","4","0","5","0","2","38","26","6","26","2","1720","4273","304","6"
"6.6.1","mac","0","2023-02-28","13:00:17","780600946","1","1","experiment","3","experiment_U","2236","1","16","DEV","POS","1","","","","","","16","45","5","4","0","5","0","2","38","26","6","26","2","1720","4273","304","6"
"6.6.1","mac","0","2023-02-28","13:00:17","780600946","1","1","experiment","3","dispFeedback_U","1000","1","16","DEV","POS","1","81","0.2565172825351388908","20.8148108345500588712","1","0.6676632882253413781","16","45","5","4","1","5","1","2","38","27","6","26","2","4286","4274","305","1"
"6.6.1","mac","0","2023-02-28","13:00:17","780600946","1","1","experiment","3","experiment_U","4983","1","59","DEV","POS","1","","","","","","59","45","5","4","1","5","1","2","38","27","6","26","2","4286","4274","305","1"
"6.6.1","mac","0","2023-02-28","13:00:17","780600946","1","1","experiment","3","dispFeedback_U","1000","1","59","DEV","POS","1","87","0.2652989462361931006","23.0638038558402911349","1","0.9570355131190818598","59","45","5","4","2","5","2","2","38","28","6","26","2","4183","4275","306","1"
"6.6.1","mac","0","2023-02-28","13:00:17","780600946","1","1","experiment","3","experiment_U","1888","1","49","DEV","POS","1","","","","","","49","45","5","4","2","5","2","2","38","28","6","26","2","4183","4275","306","1"
"6.6.1","mac","0","2023-02-28","13:00:17","780600946","1","1","experiment","3","dispFeedback_U","1000","1","49","DEV","POS","1","74","0.7423348236029529978","54.6421224769216138384","74","0.3534077288008778406","49","45","5","4","3","5","3","2","38","29","6","26","2","588","4349","311","5"
"6.6.1","mac","0","2023-02-28","13:00:17","780600946","1","1","experiment","3","experiment_U","3584","1","89","DEV","POS","1","","","","","","89","45","5","4","3","5","3","2","38","29","6","26","2","588","4349","311","5"
"6.6.1","mac","0","2023-02-28","13:00:17","780600946","1","1","experiment","3","dispFeedback_U","1000","1","89","DEV","POS","1","90","0.256690516568002014","23.1380525157915108991","1","0.3233709852964083975","89","45","5","4","4","5","4","2","38","30","6","26","0","4284","4350","312","1"
"6.6.1","mac","0","2023-02-28","13:00:17","780600946","1","1","experiment","3","experiment_noU","1080","1","78","DEV","POS","1","","","","","","78","45","5","4","4","5","4","2","38","30","6","26","0","4284","4350","312","1"
"6.6.1","mac","0","2023-02-28","13:00:17","780600946","1","1","experiment","3","dispFeedback_noU","1000","1","78","DEV","POS","1","73","0.5978679044893961958","43.4367490832752096708","73","0.1803992337501605925","78","45","5","4","4","5","4","2","38","31","6","26","0","1230","4423","317","5"
"6.6.1","mac","0","2023-02-28","13:00:17","780600946","1","1","experiment","3","experiment_noU","696","1","85","DEV","POS","1","","","","","","85","45","5","4","4","5","4","2","38","31","6","26","0","1230","4423","317","5"
"6.6.1","mac","0","2023-02-28","13:00:17","780600946","1","1","experiment","3","dispFeedback_noU","1000","1","85","DEV","POS","1","74","0.6046940580142922128","45.0346001464965226546","74","0.0679995753029360439","85","45","5","4","4","5","4","2","38","32","6","26","0","1196","4497","322","5"
"6.6.1","mac","0","2023-02-28","13:00:17","780600946","1","1","experiment","3","experiment_noU","2813","1","37","DEV","POS","1","","","","","","37","45","5","4","4","5","4","2","38","32","6","26","0","1196","4497","322","5"
"6.6.1","mac","0","2023-02-28","13:00:17","780600946","1","1","experiment","3","dispFeedback_noU","1000","1","37","DEV","POS","1","75","0.6651587797172773264","49.7927956827102917714","75","0.0285171351927605322","37","45","5","4","4","5","4","2","38","33","6","26","0","913","4572","328","6"
"6.6.1","mac","0","2023-02-28","13:00:17","780600946","1","1","experiment","3","experiment_noU","3878","1","24","DEV","POS","1","","","","","","24","45","5","4","4","5","4","2","38","33","6","26","0","913","4572","328","6"
"6.6.1","mac","0","2023-02-28","13:00:17","780600946","1","1","experiment","3","dispFeedback_noU","1000","1","24","DEV","POS","1","77","0.5787233307088173184","44.6473785643584406557","77","0.229863990617418662","24","45","5","4","4","5","4","2","38","34","6","26","0","1328","4649","334","6"
"6.6.1","mac","0","2023-02-28","13:00:17","780600946","1","1","experiment","3","experiment_noU","1132","1","19","DEV","POS","1","","","","","","19","45","5","4","4","5","4","2","38","34","6","26","0","1328","4649","334","6"
"6.6.1","mac","0","2023-02-28","13:00:17","780600946","1","1","experiment","3","dispFeedback_noU","1000","1","19","DEV","POS","1","86","0.3321569382418007033","28.5721989838840073617","86","0.7902188393730248395","19","45","5","4","4","5","4","2","38","35","6","26","0","3332","4735","340","6"
"6.6.1","mac","0","2023-02-28","13:00:17","780600946","1","1","experiment","3","experiment_noU","1324","1","66","DEV","POS","1","","","","","","66","45","5","4","4","5","4","2","38","35","6","26","0","3332","4735","340","6"
"6.6.1","mac","0","2023-02-28","13:00:17","780600946","1","1","experiment","3","dispFeedback_noU","1000","1","66","DEV","POS","1","74","0.6739939362919427079","49.615224018992314825","74","0.2323198523913323488","66","45","5","4","4","5","4","2","38","36","6","26","0","874","4809","345","5"
"6.6.1","mac","0","2023-02-28","13:00:17","780600946","1","1","experiment","3","experiment_noU","944","1","88","DEV","POS","1","","","","","","88","45","5","4","4","5","4","2","38","36","6","26","0","874","4809","345","5"
"6.6.1","mac","0","2023-02-28","13:00:17","780600946","1","1","experiment","3","dispFeedback_noU","1000","1","88","DEV","POS","1","72","0.5307188288196638126","38.4137063836515082471","72","0.5999121574219111741","88","45","5","4","4","5","4","2","38","37","6","26","0","1594","4881","350","5"
"6.6.1","mac","0","2023-02-28","13:00:17","780600946","1","1","experiment","3","experiment_noU","1107","1","8","DEV","POS","1","","","","","","8","45","5","4","4","5","4","2","38","37","6","26","0","1594","4881","350","5"
"6.6.1","mac","0","2023-02-28","13:00:17","780600946","1","1","experiment","3","dispFeedback_noU","1000","1","8","DEV","POS","1","82","0.3812532769674483735","31.4463667166028173483","82","0.3032793505823424551","8","45","5","4","4","5","4","2","38","38","6","26","0","2757","4963","356","6"
"6.6.1","mac","0","2023-02-28","13:00:17","780600946","1","1","experiment","4","experiment_noU","1957","1","63","DEV","POS","1","","","","","","63","30","40","0","0","0","0","3","37","0","10","31","0","2757","4963","356","6"
"6.6.1","mac","0","2023-02-28","13:00:17","780600946","1","1","experiment","4","dispFeedback_noU","1000","1","63","DEV","POS","1","81","0.5732092740904198847","46.5962041866617155961","81","0.5854051638360613374","63","30","40","0","0","0","0","3","37","1","10","31","0","1357","5044","362","6"
"6.6.1","mac","0","2023-02-28","13:00:17","780600946","1","1","experiment","4","experiment_noU","864","1","41","DEV","POS","1","","","","","","41","30","40","0","0","0","0","3","37","1","10","31","0","1357","5044","362","6"
"6.6.1","mac","0","2023-02-28","13:00:17","780600946","1","1","experiment","4","dispFeedback_noU","1000","1","41","DEV","POS","1","82","0.2668893600079768613","21.8572148601769811194","82","0.7250215419859209476","41","30","40","0","0","0","0","3","37","2","10","31","0","4164","5126","368","6"
"6.6.1","mac","0","2023-02-28","13:00:17","780600946","1","1","experiment","4","experiment_noU","1283","1","33","DEV","POS","1","","","","","","33","30","40","0","0","0","0","3","37","2","10","31","0","4164","5126","368","6"
"6.6.1","mac","0","2023-02-28","13:00:17","780600946","1","1","experiment","4","dispFeedback_noU","1000","1","33","DEV","POS","1","87","0.2652989462361931006","23.0638038558402911349","87","0.9100472840736729685","33","30","40","0","0","0","0","3","37","3","10","31","0","4183","5213","374","6"
"6.6.1","mac","0","2023-02-28","13:00:17","780600946","1","1","experiment","4","experiment_noU","2012","1","28","DEV","POS","1","","","","","","28","30","40","0","0","0","0","3","37","3","10","31","0","4183","5213","374","6"
"6.6.1","mac","0","2023-02-28","13:00:17","780600946","1","1","experiment","4","dispFeedback_noU","1000","1","28","DEV","POS","1","89","0.2216694360167730804","19.6999674213648425791","89","0.3913497786017483548","28","30","40","0","0","0","0","3","37","4","10","31","0","4662","5302","381","7"
"6.6.1","mac","0","2023-02-28","13:00:17","780600946","1","1","experiment","4","experiment_noU","3592","1","92","DEV","POS","1","","","","","","92","30","40","0","0","0","0","3","37","4","10","31","0","4662","5302","381","7"
"6.6.1","mac","0","2023-02-28","13:00:17","780600946","1","1","experiment","4","dispFeedback_noU","1000","1","92","DEV","POS","1","85","0.2426373478319107657","20.7338403088223266479","85","0.4400227264128678262","92","30","40","0","0","0","0","3","37","5","10","31","0","4442","5387","387","6"
"6.6.1","mac","0","2023-02-28","13:00:17","780600946","1","1","experiment","4","experiment_noU","3146","1","96","DEV","POS","1","","","","","","96","30","40","0","0","0","0","3","37","5","10","31","0","4442","5387","387","6"
"6.6.1","mac","0","2023-02-28","13:00:17","780600946","1","1","experiment","4","dispFeedback_noU","1000","1","96","DEV","POS","1","88","0.2642057010190034805","23.2399927150569887147","88","0.9628996858286903437","96","30","40","0","0","0","0","3","37","6","10","31","0","4196","5475","393","6"
"6.6.1","mac","0","2023-02-28","13:00:17","780600946","1","1","experiment","4","experiment_noU","918","1","42","DEV","POS","1","","","","","","42","30","40","0","0","0","0","3","37","6","10","31","0","4196","5475","393","6"
"6.6.1","mac","0","2023-02-28","13:00:17","780600946","1","1","experiment","4","dispFeedback_noU","1000","1","42","DEV","POS","1","84","0.2580723723108332424","21.7058804394289914796","84","0.0477744257188808252","42","30","40","0","0","0","0","3","37","7","10","31","0","4268","5559","399","6"
"6.6.1","mac","0","2023-02-28","13:00:17","780600946","1","1","experiment","4","experiment_noU","6243","1","94","DEV","POS","1","","","","","","94","30","40","0","0","0","0","3","37","7","10","31","0","4268","5559","399","6"
"6.6.1","mac","0","2023-02-28","13:00:17","780600946","1","1","experiment","4","dispFeedback_noU","1000","1","94","DEV","POS","1","84","0.4427560727975996535","37.0589015939351185125","84","0.1591072122471191008","94","30","40","0","0","0","0","3","37","8","10","31","0","2193","5643","405","6"
"6.6.1","mac","0","2023-02-28","13:00:17","780600946","1","1","experiment","4","experiment_noU","4154","1","74","DEV","POS","1","","","","","","74","30","40","0","0","0","0","3","37","8","10","31","0","2193","5643","405","6"
"6.6.1","mac","0","2023-02-28","13:00:17","780600946","1","1","experiment","4","dispFeedback_noU","1000","1","74","DEV","POS","1","81","0.2718567157867740058","21.9584220198391015799","81","0.5994040969757838955","74","30","40","0","0","0","0","3","37","9","10","31","0","4104","5724","411","6"
"6.6.1","mac","0","2023-02-28","13:00:17","780600946","1","1","experiment","4","experiment_noU","3059","1","39","DEV","POS","1","","","","","","39","30","40","0","0","0","0","3","37","9","10","31","0","4104","5724","411","6"
"6.6.1","mac","0","2023-02-28","13:00:17","780600946","1","1","experiment","4","dispFeedback_noU","1000","1","39","DEV","POS","1","73","0.5921205321445942582","43.1074963226676572958","73","0.9361673230156691838","39","30","40","0","0","0","0","3","37","10","10","31","1","1259","5797","416","5"
"6.6.1","mac","0","2023-02-28","13:00:17","780600946","1","1","experiment","4","experiment_U","2239","1","70","DEV","POS","1","","","","","","70","30","40","0","0","0","0","3","37","10","10","31","1","1259","5797","416","5"
"6.6.1","mac","0","2023-02-28","13:00:17","780600946","1","1","experiment","4","dispFeedback_U","1000","1","70","DEV","POS","1","78","0.4697607330210917809","36.6268904183908574623","1","0.8891738261769465135","70","30","40","1","0","1","0","3","37","11","10","31","1","1989","5798","417","1"
"6.6.1","mac","0","2023-02-28","13:00:17","780600946","1","1","experiment","4","experiment_U","4915","1","3","DEV","POS","1","","","","","","3","30","40","1","0","1","0","3","37","11","10","31","1","1989","5798","417","1"
"6.6.1","mac","0","2023-02-28","13:00:17","780600946","1","1","experiment","4","dispFeedback_U","1000","1","3","DEV","POS","1","72","0.581217554071665643","41.8963378083222721671","72","0.5275847775693015551","3","30","40","1","0","2","0","3","37","12","10","31","1","1315","5870","422","5"
"6.6.1","mac","0","2023-02-28","13:00:17","780600946","1","1","experiment","4","experiment_U","3088","1","33","DEV","POS","1","","","","","","33","30","40","1","0","2","0","3","37","12","10","31","1","1315","5870","422","5"
"6.6.1","mac","0","2023-02-28","13:00:17","780600946","1","1","experiment","4","dispFeedback_U","1000","1","33","DEV","POS","1","73","0.6485062698621346655","47.5439380557683435313","1","0.6543554024897412225","33","30","40","1","0","3","0","3","37","13","10","31","1","988","5871","423","1"
"6.6.1","mac","0","2023-02-28","13:00:17","780600946","1","1","experiment","4","experiment_U","1946","1","86","DEV","POS","1","","","","","","86","30","40","1","0","3","0","3","37","13","10","31","1","988","5871","423","1"
"6.6.1","mac","0","2023-02-28","13:00:17","780600946","1","1","experiment","4","dispFeedback_U","1000","1","86","DEV","POS","1","82","0.4075718576452043163","33.2972158974859624436","1","0.7833703276196891663","86","30","40","1","0","4","0","3","37","14","10","31","1","2496","5872","424","1"
"6.6.1","mac","0","2023-02-28","13:00:17","780600946","1","1","experiment","4","experiment_U","1453","1","46","DEV","POS","1","","","","","","46","30","40","1","0","4","0","3","37","14","10","31","1","2496","5872","424","1"
"6.6.1","mac","0","2023-02-28","13:00:17","780600946","1","1","experiment","4","dispFeedback_U","1000","1","46","DEV","POS","1","69","0.8991475157737528479","61.6397711901403511092","69","0.5981105909678411381","46","30","40","2","0","5","0","3","37","15","10","31","1","3","5941","429","5"
"6.6.1","mac","0","2023-02-28","13:00:17","780600946","1","1","experiment","4","experiment_U","2405","1","52","DEV","POS","1","","","","","","52","30","40","2","0","5","0","3","37","15","10","31","1","3","5941","429","5"
"6.6.1","mac","0","2023-02-28","13:00:17","780600946","1","1","experiment","4","dispFeedback_U","1000","1","52","DEV","POS","1","79","0.5929091692609955722","46.7102468736949916206","79","0.2546203039248055577","52","30","40","2","0","6","0","3","37","16","10","31","1","1255","6020","435","6"
"6.6.1","mac","0","2023-02-28","13:00:17","780600946","1","1","experiment","4","experiment_U","2517","1","25","DEV","POS","1","","","","","","25","30","40","2","0","6","0","3","37","16","10","31","1","1255","6020","435","6"
"6.6.1","mac","0","2023-02-28","13:00:17","780600946","1","1","experiment","4","dispFeedback_U","1000","1","25","DEV","POS","1","68","0.8951746409128406023","60.6487608276602756519","68","0.842434202749848926","25","30","40","3","0","7","0","3","37","17","10","31","1","17","6088","440","5"
"6.6.1","mac","0","2023-02-28","13:00:17","780600946","1","1","experiment","4","experiment_U","4936","1","12","DEV","POS","1","","","","","","12","30","40","3","0","7","0","3","37","17","10","31","1","17","6088","440","5"
"6.6.1","mac","0","2023-02-28","13:00:17","780600946","1","1","experiment","4","dispFeedback_U","1000","1","12","DEV","POS","1","79","0.4995955356262560265","39.5601241309429951798","79","0.4770476216164062921","12","30","40","3","0","8","0","3","37","18","10","31","1","1786","6167","446","6"
"6.6.1","mac","0","2023-02-28","13:00:17","780600946","1","1","experiment","4","experiment_U","1815","1","74","DEV","POS","1","","","","","","74","30","40","3","0","8","0","3","37","18","10","31","1","1786","6167","446","6"
"6.6.1","mac","0","2023-02-28","13:00:17","780600946","1","1","experiment","4","dispFeedback_U","1000","1","74","DEV","POS","1","82","0.5028593208873921583","41.28448416427143286","82","0.3290419700390291302","74","30","40","3","0","9","0","3","37","19","10","31","1","1765","6249","452","6"
"6.6.1","mac","0","2023-02-28","13:00:17","780600946","1","1","experiment","4","experiment_U","2124","1","72","DEV","POS","1","","","","","","72","30","40","3","0","9","0","3","37","19","10","31","1","1765","6249","452","6"
"6.6.1","mac","0","2023-02-28","13:00:17","780600946","1","1","experiment","4","dispFeedback_U","1000","1","72","DEV","POS","1","80","0.471861285264277619","37.7079960228229253971","1","0.9545466620369223998","72","30","40","4","0","10","0","3","37","20","10","31","0","1974","6250","453","1"
"6.6.1","mac","0","2023-02-28","13:00:17","780600946","1","1","experiment","4","experiment_noU","1618","1","71","DEV","POS","1","","","","","","71","30","40","4","0","10","0","3","37","20","10","31","0","1974","6250","453","1"
"6.6.1","mac","0","2023-02-28","13:00:17","780600946","1","1","experiment","4","dispFeedback_noU","1000","1","71","DEV","POS","1","73","0.5618357453044682259","40.7793167175026951554","73","0.5383787882836486016","71","30","40","4","0","10","0","3","37","21","10","31","0","1418","6323","458","5"
"6.6.1","mac","0","2023-02-28","13:00:17","780600946","1","1","experiment","4","experiment_noU","2254","1","32","DEV","POS","1","","","","","","32","30","40","4","0","10","0","3","37","21","10","31","0","1418","6323","458","5"
"6.6.1","mac","0","2023-02-28","13:00:17","780600946","1","1","experiment","4","dispFeedback_noU","1000","1","32","DEV","POS","1","63","0.8706932024246276658","54.7631132964903244442","63","0.3575035746576040174","32","30","40","4","0","10","0","3","37","22","10","31","0","104","6386","463","5"
"6.6.1","mac","0","2023-02-28","13:00:17","780600946","1","1","experiment","4","experiment_noU","1165","1","59","DEV","POS","1","","","","","","59","30","40","4","0","10","0","3","37","22","10","31","0","104","6386","463","5"
"6.6.1","mac","0","2023-02-28","13:00:17","780600946","1","1","experiment","4","dispFeedback_noU","1000","1","59","DEV","POS","1","73","0.7996710441120411517","58.1419231304585508724","73","0.7174413969548050218","59","30","40","4","0","10","0","3","37","23","10","31","0","365","6459","468","5"
"6.6.1","mac","0","2023-02-28","13:00:17","780600946","1","1","experiment","4","experiment_noU","1052","1","96","DEV","POS","1","","","","","","96","30","40","4","0","10","0","3","37","23","10","31","0","365","6459","468","5"
"6.6.1","mac","0","2023-02-28","13:00:17","780600946","1","1","experiment","4","dispFeedback_noU","1000","1","96","DEV","POS","1","76","0.4544492561115821561","34.7112374005258104148","76","0.9622757851523989769","96","30","40","4","0","10","0","3","37","24","10","31","0","2102","6535","474","6"
"6.6.1","mac","0","2023-02-28","13:00:17","780600946","1","1","experiment","4","experiment_noU","3990","1","46","DEV","POS","1","","","","","","46","30","40","4","0","10","0","3","37","24","10","31","0","2102","6535","474","6"
"6.6.1","mac","0","2023-02-28","13:00:17","780600946","1","1","experiment","4","dispFeedback_noU","1000","1","46","DEV","POS","1","76","0.4028995517248139535","30.5531969706198758274","76","0.0666983539859527658","46","30","40","4","0","10","0","3","37","25","10","31","0","2540","6611","480","6"
"6.6.1","mac","0","2023-02-28","13:00:17","780600946","1","1","experiment","4","experiment_noU","1710","1","89","DEV","POS","1","","","","","","89","30","40","4","0","10","0","3","37","25","10","31","0","2540","6611","480","6"
"6.6.1","mac","0","2023-02-28","13:00:17","780600946","1","1","experiment","4","dispFeedback_noU","1000","1","89","DEV","POS","1","78","0.4170077846455745307","32.7033267829048881481","78","0.0719371847975852907","89","30","40","4","0","10","0","3","37","26","10","31","0","2410","6689","486","6"
"6.6.1","mac","0","2023-02-28","13:00:17","780600946","1","1","experiment","4","experiment_noU","1069","1","38","DEV","POS","1","","","","","","38","30","40","4","0","10","0","3","37","26","10","31","0","2410","6689","486","6"
"6.6.1","mac","0","2023-02-28","13:00:17","780600946","1","1","experiment","4","dispFeedback_noU","1000","1","38","DEV","POS","1","87","0.2622611316994309938","22.8189753113886482083","87","0.0036924283494456736","38","30","40","4","0","10","0","3","37","27","10","31","0","4219","6776","492","6"
"6.6.1","mac","0","2023-02-28","13:00:17","780600946","1","1","experiment","4","experiment_noU","1620","1","34","DEV","POS","1","","","","","","34","30","40","4","0","10","0","3","37","27","10","31","0","4219","6776","492","6"
"6.6.1","mac","0","2023-02-28","13:00:17","780600946","1","1","experiment","4","dispFeedback_noU","1000","1","34","DEV","POS","1","91","0.2306521270884195896","20.9196535045614773196","91","0.4954935641715986772","34","30","40","4","0","10","0","3","37","28","10","31","0","4570","6867","499","7"
"6.6.1","mac","0","2023-02-28","13:00:17","780600946","1","1","experiment","4","experiment_noU","2224","1","56","DEV","POS","1","","","","","","56","30","40","4","0","10","0","3","37","28","10","31","0","4570","6867","499","7"
"6.6.1","mac","0","2023-02-28","13:00:17","780600946","1","1","experiment","4","dispFeedback_noU","1000","1","56","DEV","POS","1","73","0.5891748422465095114","42.9379856091102283244","73","0.1557144706965690739","56","30","40","4","0","10","0","3","37","29","10","31","0","1274","6940","504","5"
"6.6.1","mac","0","2023-02-28","13:00:17","780600946","1","1","experiment","4","experiment_noU","3472","1","57","DEV","POS","1","","","","","","57","30","40","4","0","10","0","3","37","29","10","31","0","1274","6940","504","5"
"6.6.1","mac","0","2023-02-28","13:00:17","780600946","1","1","experiment","4","dispFeedback_noU","1000","1","57","DEV","POS","1","83","0.399564790695092098","33.1365342012714663156","83","0.3086018404710576535","57","30","40","4","0","10","0","3","37","30","10","31","0","2572","7023","510","6"
"6.6.1","mac","0","2023-02-28","13:00:17","780600946","1","1","experiment","4","experiment_noU","1014","1","32","DEV","POS","1","","","","","","32","30","40","4","0","10","0","3","37","30","10","31","0","2572","7023","510","6"
"6.6.1","mac","0","2023-02-28","13:00:17","780600946","1","1","experiment","4","dispFeedback_noU","1000","1","32","DEV","POS","1","82","0.2910421402072331798","23.9409946433196374471","82","0.8853395508800958602","32","30","40","4","0","10","0","3","37","31","10","31","2","3864","7105","516","6"
"6.6.1","mac","0","2023-02-28","13:00:17","780600946","1","1","experiment","4","experiment_U","1220","1","97","DEV","POS","1","","","","","","97","30","40","4","0","10","0","3","37","31","10","31","2","3864","7105","516","6"
"6.6.1","mac","0","2023-02-28","13:00:17","780600946","1","1","experiment","4","dispFeedback_U","1000","1","97","DEV","POS","1","81","0.4273366780046559121","34.669876438565957244","1","0.7124537640978707564","97","30","40","4","1","10","1","3","37","32","10","31","2","2320","7106","517","1"
"6.6.1","mac","0","2023-02-28","13:00:17","780600946","1","1","experiment","4","experiment_U","1134","1","61","DEV","POS","1","","","","","","61","30","40","4","1","10","1","3","37","32","10","31","2","2320","7106","517","1"
"6.6.1","mac","0","2023-02-28","13:00:17","780600946","1","1","experiment","4","dispFeedback_U","1000","1","61","DEV","POS","1","73","0.7815767800460199366","57.3169838443618644419","73","0.5047646359318784803","61","30","40","4","2","10","2","3","37","33","10","31","2","434","7179","522","5"
"6.6.1","mac","0","2023-02-28","13:00:17","780600946","1","1","experiment","4","experiment_U","1859","1","66","DEV","POS","1","","","","","","66","30","40","4","2","10","2","3","37","33","10","31","2","434","7179","522","5"
"6.6.1","mac","0","2023-02-28","13:00:17","780600946","1","1","experiment","4","dispFeedback_U","1000","1","66","DEV","POS","1","77","0.5634946512606435753","43.1297069411360070035","1","0.6728382314724936641","66","30","40","4","3","10","3","3","37","34","10","31","2","1409","7180","523","1"
"6.6.1","mac","0","2023-02-28","13:00:17","780600946","1","1","experiment","4","experiment_U","1939","1","86","DEV","POS","1","","","","","","86","30","40","4","3","10","3","3","37","34","10","31","2","1409","7180","523","1"
"6.6.1","mac","0","2023-02-28","13:00:17","780600946","1","1","experiment","4","dispFeedback_U","1000","1","86","DEV","POS","1","83","0.4083246794017357795","33.7580904297270052439","83","0.266601244282583083","86","30","40","4","4","10","4","3","37","35","10","31","0","2489","7263","529","6"
"6.6.1","mac","0","2023-02-28","13:00:17","780600946","1","1","experiment","4","experiment_noU","3004","1","34","DEV","POS","1","","","","","","34","30","40","4","4","10","4","3","37","35","10","31","0","2489","7263","529","6"
"6.6.1","mac","0","2023-02-28","13:00:17","780600946","1","1","experiment","4","dispFeedback_noU","1000","1","34","DEV","POS","1","71","0.6559999692717815023","46.6478421187598257802","71","0.664959031544849033","34","30","40","4","4","10","4","3","37","36","10","31","0","954","7334","534","5"
"6.6.1","mac","0","2023-02-28","13:00:17","780600946","1","1","experiment","4","experiment_noU","1330","1","20","DEV","POS","1","","","","","","20","30","40","4","4","10","4","3","37","36","10","31","0","954","7334","534","5"
"6.6.1","mac","0","2023-02-28","13:00:17","780600946","1","1","experiment","4","dispFeedback_noU","1000","1","20","DEV","POS","1","89","0.3129493764192033955","27.7326608291869582956","89","0.1098498963075340423","20","30","40","4","4","10","4","3","37","37","10","31","0","3580","7423","541","7"
"6.6.1","mac","0","2023-02-28","13:00:17","780600946","1","1","experiment","5","experiment_noU","1437","1","1","IEV","POS","1","","","","","","1","40","10","0","0","0","0","4","36","0","7","29","0","3580","7423","541","7"
"6.6.1","mac","0","2023-02-28","13:00:17","780600946","1","1","experiment","5","dispFeedback_noU","1000","1","1","IEV","POS","1","59","0.6348417441985697574","37.4299907692118125624","59","0.8478070471547094478","1","40","10","0","0","0","0","4","36","1","7","29","0","2737","7482","545","4"
"6.6.1","mac","0","2023-02-28","13:00:17","780600946","1","1","experiment","5","experiment_noU","2351","1","10","IEV","POS","1","","","","","","10","40","10","0","0","0","0","4","36","1","7","29","0","2737","7482","545","4"
"6.6.1","mac","0","2023-02-28","13:00:17","780600946","1","1","experiment","5","dispFeedback_noU","1000","1","10","IEV","POS","1","155","0.3561827251792566429","55.1355983789853922872","155","0.7552076775476354031","10","40","10","0","0","0","0","4","36","2","7","29","0","4101","7637","555","10"
"6.6.1","mac","0","2023-02-28","13:00:17","780600946","1","1","experiment","5","experiment_noU","4860","1","63","IEV","POS","1","","","","","","63","40","10","0","0","0","0","4","36","2","7","29","0","4101","7637","555","10"
"6.6.1","mac","0","2023-02-28","13:00:17","780600946","1","1","experiment","5","dispFeedback_noU","1000","1","63","IEV","POS","1","173","0.324096491457988134","56.013583146077600361","173","0.9912467536030445947","63","40","10","0","0","0","0","4","36","3","7","29","0","4260","7810","565","10"
"6.6.1","mac","0","2023-02-28","13:00:17","780600946","1","1","experiment","5","experiment_noU","6500","1","17","IEV","POS","1","","","","","","17","40","10","0","0","0","0","4","36","3","7","29","0","4260","7810","565","10"
"6.6.1","mac","0","2023-02-28","13:00:17","780600946","1","1","experiment","5","dispFeedback_noU","1000","1","17","IEV","POS","1","106","0.4600137769819510614","48.8480114163261589511","106","0.8165766458996982502","17","40","10","0","0","0","0","4","36","4","7","29","0","3600","7916","565","0"
"6.6.1","mac","0","2023-02-28","13:00:17","780600946","1","1","experiment","5","experiment_noU","1427","1","31","IEV","POS","1","","","","","","31","40","10","0","0","0","0","4","36","4","7","29","0","3600","7916","565","0"
"6.6.1","mac","0","2023-02-28","13:00:17","780600946","1","1","experiment","5","dispFeedback_noU","1000","1","31","IEV","POS","1","162","0.3307041258064446487","53.5259662114005223543","162","0.0573981874756045174","31","40","10","0","0","0","0","4","36","5","7","29","0","4227","8078","575","10"
"6.6.1","mac","0","2023-02-28","13:00:17","780600946","1","1","experiment","5","experiment_noU","4593","1","72","IEV","POS","1","","","","","","72","40","10","0","0","0","0","4","36","5","7","29","0","4227","8078","575","10"
"6.6.1","mac","0","2023-02-28","13:00:17","780600946","1","1","experiment","5","dispFeedback_noU","1000","1","72","IEV","POS","1","197","0.2880255308740754527","56.882339440351877613","197","0.1344110775120582191","72","40","10","0","0","0","0","4","36","6","7","29","0","4443","8275","585","10"
"6.6.1","mac","0","2023-02-28","13:00:17","780600946","1","1","experiment","5","experiment_noU","3697","1","89","IEV","POS","1","","","","","","89","40","10","0","0","0","0","4","36","6","7","29","0","4443","8275","585","10"
"6.6.1","mac","0","2023-02-28","13:00:17","780600946","1","1","experiment","5","dispFeedback_noU","1000","1","89","IEV","POS","1","190","0.2969955339660559357","56.3809528054601187819","190","0.3261495934161706134","89","40","10","0","0","0","0","4","36","7","7","29","1","4397","8465","595","10"
"6.6.1","mac","0","2023-02-28","13:00:17","780600946","1","1","experiment","5","experiment_U","1179","1","36","IEV","POS","1","","","","","","36","40","10","0","0","0","0","4","36","7","7","29","1","4397","8465","595","10"
"6.6.1","mac","0","2023-02-28","13:00:17","780600946","1","1","experiment","5","dispFeedback_U","1000","1","36","IEV","POS","1","169","0.3303028427734610584","55.8515024158268218457","169","0.0826867993647900368","36","40","10","1","0","1","0","4","36","8","7","29","1","4229","8634","605","10"
"6.6.1","mac","0","2023-02-28","13:00:17","780600946","1","1","experiment","5","experiment_U","3907","1","82","IEV","POS","1","","","","","","82","40","10","1","0","1","0","4","36","8","7","29","1","4229","8634","605","10"
"6.6.1","mac","0","2023-02-28","13:00:17","780600946","1","1","experiment","5","dispFeedback_U","1000","1","82","IEV","POS","1","171","0.3246959797300736361","55.6733931740146417155","1","0.6136267547527390898","82","40","10","2","0","2","0","4","36","9","7","29","1","4257","8635","606","1"
"6.6.1","mac","0","2023-02-28","13:00:17","780600946","1","1","experiment","5","experiment_U","4574","1","73","IEV","POS","1","","","","","","73","40","10","2","0","2","0","4","36","9","7","29","1","4257","8635","606","1"
"6.6.1","mac","0","2023-02-28","13:00:17","780600946","1","1","experiment","5","dispFeedback_U","1000","1","73","IEV","POS","1","202","0.2820199479162845968","57.014890370220065563","1","0.3186989955880443759","73","40","10","3","0","3","0","4","36","10","7","29","1","4474","8636","607","1"
"6.6.1","mac","0","2023-02-28","13:00:17","780600946","1","1","experiment","5","experiment_U","1744","1","69","IEV","POS","1","","","","","","69","40","10","3","0","3","0","4","36","10","7","29","1","4474","8636","607","1"
"6.6.1","mac","0","2023-02-28","13:00:17","780600946","1","1","experiment","5","dispFeedback_U","1000","1","69","IEV","POS","1","30","0.8303480429269246565","24.8837646405603152289","1","0.8718059325757916422","69","40","10","4","0","4","0","4","36","11","7","29","0","1444","8637","608","1"
"6.6.1","mac","0","2023-02-28","13:00:17","780600946","1","1","experiment","5","experiment_noU","2521","1","11","IEV","POS","1","","","","","","11","40","10","4","0","4","0","4","36","11","7","29","0","1444","8637","608","1"
"6.6.1","mac","0","2023-02-28","13:00:17","780600946","1","1","experiment","5","dispFeedback_noU","1000","1","11","IEV","POS","1","177","0.3119613374522040017","55.0719430303045456299","177","0.0980501519744401279","11","40","10","4","0","4","0","4","36","12","7","29","0","4321","8814","618","10"
"6.6.1","mac","0","2023-02-28","13:00:17","780600946","1","1","experiment","5","experiment_noU","2321","1","16","IEV","POS","1","","","","","","16","40","10","4","0","4","0","4","36","12","7","29","0","4321","8814","618","10"
"6.6.1","mac","0","2023-02-28","13:00:17","780600946","1","1","experiment","5","dispFeedback_noU","1000","1","16","IEV","POS","1","180","0.3020954668070222615","54.4436406332969156097","180","0.3496416423818193286","16","40","10","4","0","4","0","4","36","13","7","29","0","4371","8994","628","10"
"6.6.1","mac","0","2023-02-28","13:00:17","780600946","1","1","experiment","5","experiment_noU","6500","1","30","IEV","POS","1","","","","","","30","40","10","4","0","4","0","4","36","13","7","29","0","4371","8994","628","10"
"6.6.1","mac","0","2023-02-28","13:00:17","780600946","1","1","experiment","5","dispFeedback_noU","1000","1","30","IEV","POS","1","168","0.3260957330166453505","54.6573943915611337729","168","0.3862808836592083739","30","40","10","4","0","4","0","4","36","14","7","29","0","4250","9162","628","0"
"6.6.1","mac","0","2023-02-28","13:00:17","780600946","1","1","experiment","5","experiment_noU","2064","1","23","IEV","POS","1","","","","","","23","40","10","4","0","4","0","4","36","14","7","29","0","4250","9162","628","0"
"6.6.1","mac","0","2023-02-28","13:00:17","780600946","1","1","experiment","5","dispFeedback_noU","1000","1","23","IEV","POS","1","199","0.2839536946423869002","56.4046779650256766558","199","0.4332309256850813695","23","40","10","4","0","4","0","4","36","15","7","29","0","4464","9361","638","10"
"6.6.1","mac","0","2023-02-28","13:00:17","780600946","1","1","experiment","5","experiment_noU","3273","1","81","IEV","POS","1","","","","","","81","40","10","4","0","4","0","4","36","15","7","29","0","4464","9361","638","10"
"6.6.1","mac","0","2023-02-28","13:00:17","780600946","1","1","experiment","5","dispFeedback_noU","1000","1","81","IEV","POS","1","103","0.4656562375785790464","48.126323820584850921","103","0.0401944262069171346","81","40","10","4","0","4","0","4","36","16","7","29","0","3573","9464","646","8"
"6.6.1","mac","0","2023-02-28","13:00:17","780600946","1","1","experiment","5","experiment_noU","6500","1","13","IEV","POS","1","","","","","","13","40","10","4","0","4","0","4","36","16","7","29","0","3573","9464","646","8"
"6.6.1","mac","0","2023-02-28","13:00:17","780600946","1","1","experiment","5","dispFeedback_noU","1000","1","13","IEV","POS","1","98","0.5017339637127087304","49.387313277447958626","98","0.8723276401572692684","13","40","10","4","0","4","0","4","36","17","7","29","0","3400","9562","646","0"
"6.6.1","mac","0","2023-02-28","13:00:17","780600946","1","1","experiment","5","experiment_noU","2122","1","9","IEV","POS","1","","","","","","9","40","10","4","0","4","0","4","36","17","7","29","0","3400","9562","646","0"
"6.6.1","mac","0","2023-02-28","13:00:17","780600946","1","1","experiment","5","dispFeedback_noU","1000","1","9","IEV","POS","1","130","0.4136848857611925556","53.7262702599123045388","130","0.1601344128512159071","9","40","10","4","0","4","0","4","36","18","7","29","0","3822","9692","655","9"
"6.6.1","mac","0","2023-02-28","13:00:17","780600946","1","1","experiment","5","experiment_noU","1160","1","33","IEV","POS","1","","","","","","33","40","10","4","0","4","0","4","36","18","7","29","0","3822","9692","655","9"
"6.6.1","mac","0","2023-02-28","13:00:17","780600946","1","1","experiment","5","dispFeedback_noU","1000","1","33","IEV","POS","1","148","0.3645500493190549918","53.7966400339010561993","148","0.8796006277854555577","33","40","10","4","0","4","0","4","36","19","7","29","0","4060","9840","665","10"
"6.6.1","mac","0","2023-02-28","13:00:17","780600946","1","1","experiment","5","experiment_noU","911","1","41","IEV","POS","1","","","","","","41","40","10","4","0","4","0","4","36","19","7","29","0","4060","9840","665","10"
"6.6.1","mac","0","2023-02-28","13:00:17","780600946","1","1","experiment","5","dispFeedback_noU","1000","1","41","IEV","POS","1","162","0.3339181163578998635","54.0857875433741313032","162","0.5203817229532594624","41","40","10","4","0","4","0","4","36","20","7","29","0","4211","10002","675","10"
"6.6.1","mac","0","2023-02-28","13:00:17","780600946","1","1","experiment","5","experiment_noU","1037","1","47","IEV","POS","1","","","","","","47","40","10","4","0","4","0","4","36","20","7","29","0","4211","10002","675","10"
"6.6.1","mac","0","2023-02-28","13:00:17","780600946","1","1","experiment","5","dispFeedback_noU","1000","1","47","IEV","POS","1","225","0.2510005872174945751","56.3900624590795302993","225","0.5958823656188050322","47","40","10","4","0","4","0","4","36","21","7","29","0","4637","10227","685","10"
"6.6.1","mac","0","2023-02-28","13:00:17","780600946","1","1","experiment","5","experiment_noU","837","1","46","IEV","POS","1","","","","","","46","40","10","4","0","4","0","4","36","21","7","29","0","4637","10227","685","10"
"6.6.1","mac","0","2023-02-28","13:00:17","780600946","1","1","experiment","5","dispFeedback_noU","1000","1","46","IEV","POS","1","185","0.2989545350274217528","55.4364685491079356439","185","0.5233094055492685248","46","40","10","4","0","4","0","4","36","22","7","29","0","4387","10412","695","10"
"6.6.1","mac","0","2023-02-28","13:00:17","780600946","1","1","experiment","5","experiment_noU","2949","1","96","IEV","POS","1","","","","","","96","40","10","4","0","4","0","4","36","22","7","29","0","4387","10412","695","10"
"6.6.1","mac","0","2023-02-28","13:00:17","780600946","1","1","experiment","5","dispFeedback_noU","1000","1","96","IEV","POS","1","138","0.3770594015587872549","51.8714824317153855304","138","0.2252645663044565705","96","40","10","4","0","4","0","4","36","23","7","29","0","3999","10550","705","10"
"6.6.1","mac","0","2023-02-28","13:00:17","780600946","1","1","experiment","5","experiment_noU","5282","1","48","IEV","POS","1","","","","","","48","40","10","4","0","4","0","4","36","23","7","29","0","3999","10550","705","10"
"6.6.1","mac","0","2023-02-28","13:00:17","780600946","1","1","experiment","5","dispFeedback_noU","1000","1","48","IEV","POS","1","134","0.3908725759675426015","52.5108224140201045316","134","0.5082632148424776064","48","40","10","4","0","4","0","4","36","24","7","29","0","3932","10684","714","9"
"6.6.1","mac","0","2023-02-28","13:00:17","780600946","1","1","experiment","5","experiment_noU","4280","1","69","IEV","POS","1","","","","","","69","40","10","4","0","4","0","4","36","24","7","29","0","3932","10684","714","9"
"6.6.1","mac","0","2023-02-28","13:00:17","780600946","1","1","experiment","5","dispFeedback_noU","1000","1","69","IEV","POS","1","138","0.380969270024765827","52.4843565113992269744","138","0.648575835546612689","69","40","10","4","0","4","0","4","36","25","7","29","0","3980","10822","724","10"
"6.6.1","mac","0","2023-02-28","13:00:17","780600946","1","1","experiment","5","experiment_noU","2834","1","2","IEV","POS","1","","","","","","2","40","10","4","0","4","0","4","36","25","7","29","0","3980","10822","724","10"
"6.6.1","mac","0","2023-02-28","13:00:17","780600946","1","1","experiment","5","dispFeedback_noU","1000","1","2","IEV","POS","1","158","0.3393564304613292948","53.5722700742180037992","158","0.6238641111701410669","2","40","10","4","0","4","0","4","36","26","7","29","0","4184","10980","734","10"
"6.6.1","mac","0","2023-02-28","13:00:17","780600946","1","1","experiment","5","experiment_noU","2496","1","77","IEV","POS","1","","","","","","77","40","10","4","0","4","0","4","36","26","7","29","0","4184","10980","734","10"
"6.6.1","mac","0","2023-02-28","13:00:17","780600946","1","1","experiment","5","dispFeedback_noU","1000","1","77","IEV","POS","1","63","0.6611879947779488731","41.551806239615629579","63","0.5152703960228874891","77","40","10","4","0","4","0","4","36","27","7","29","0","2596","11043","739","5"
"6.6.1","mac","0","2023-02-28","13:00:17","780600946","1","1","experiment","5","experiment_noU","3282","1","85","IEV","POS","1","","","","","","85","40","10","4","0","4","0","4","36","27","7","29","0","2596","11043","739","5"
"6.6.1","mac","0","2023-02-28","13:00:17","780600946","1","1","experiment","5","dispFeedback_noU","1000","1","85","IEV","POS","1","117","0.422012086964799582","49.2237337129056555796","117","0.4071891790738303984","85","40","10","4","0","4","0","4","36","28","7","29","0","3782","11160","747","8"
"6.6.1","mac","0","2023-02-28","13:00:17","780600946","1","1","experiment","5","experiment_noU","2803","1","99","IEV","POS","1","","","","","","99","40","10","4","0","4","0","4","36","28","7","29","0","3782","11160","747","8"
"6.6.1","mac","0","2023-02-28","13:00:17","780600946","1","1","experiment","5","dispFeedback_noU","1000","1","99","IEV","POS","1","141","0.3762370532985364058","53.0313568471538090421","141","0.8454891035439188185","99","40","10","4","0","4","0","4","36","29","7","29","2","4003","11301","757","10"
"6.6.1","mac","0","2023-02-28","13:00:17","780600946","1","1","experiment","5","experiment_U","6270","1","26","IEV","POS","1","","","","","","26","40","10","4","0","4","0","4","36","29","7","29","2","4003","11301","757","10"
"6.6.1","mac","0","2023-02-28","13:00:17","780600946","1","1","experiment","5","dispFeedback_U","1000","1","26","IEV","POS","1","122","0.4141009058621479277","50.3995152160994166479","1","0.9585486694608229552","26","40","10","4","1","4","1","4","36","30","7","29","2","3820","11302","758","1"
"6.6.1","mac","0","2023-02-28","13:00:17","780600946","1","1","experiment","5","experiment_U","983","1","55","IEV","POS","1","","","","","","55","40","10","4","1","4","1","4","36","30","7","29","2","3820","11302","758","1"
"6.6.1","mac","0","2023-02-28","13:00:17","780600946","1","1","experiment","5","dispFeedback_U","1000","1","55","IEV","POS","1","305","0.1886452555745554704","57.5114871137654404265","1","0.9537136864275005399","55","40","10","4","1","4","2","4","36","31","7","29","2","4983","11303","759","1"
"6.6.1","mac","0","2023-02-28","13:00:17","780600946","1","1","experiment","5","experiment_U","1458","1","58","IEV","POS","1","","","","","","58","40","10","4","1","4","2","4","36","31","7","29","2","4983","11303","759","1"
"6.6.1","mac","0","2023-02-28","13:00:17","780600946","1","1","experiment","5","dispFeedback_U","1000","1","58","IEV","POS","1","23","0.8889264396685043756","20.6607606489470576605","23","0.3497468124492435493","58","40","10","4","1","4","3","4","36","32","7","29","2","608","11326","760","1"
"6.6.1","mac","0","2023-02-28","13:00:17","780600946","1","1","experiment","5","experiment_U","3404","1","35","IEV","POS","1","","","","","","35","40","10","4","1","4","3","4","36","32","7","29","2","608","11326","760","1"
"6.6.1","mac","0","2023-02-28","13:00:17","780600946","1","1","experiment","5","dispFeedback_U","1000","1","35","IEV","POS","1","33","0.8344380146389944741","27.7740171969823492759","33","0.2218442010278450782","35","40","10","4","1","4","4","4","36","33","7","29","2","1404","11359","763","3"
"6.6.1","mac","0","2023-02-28","13:00:17","780600946","1","1","experiment","5","experiment_U","1608","1","81","IEV","POS","1","","","","","","81","40","10","4","1","4","4","4","36","33","7","29","2","1404","11359","763","3"
"6.6.1","mac","0","2023-02-28","13:00:17","780600946","1","1","experiment","5","dispFeedback_U","1000","1","81","IEV","POS","1","43","0.7735590586478920949","33.4783387792724766996","43","0.719795730365392683","81","40","10","4","1","4","5","4","36","34","7","29","2","1908","11402","766","3"
"6.6.1","mac","0","2023-02-28","13:00:17","780600946","1","1","experiment","5","experiment_U","2845","1","69","IEV","POS","1","","","","","","69","40","10","4","1","4","5","4","36","34","7","29","2","1908","11402","766","3"
"6.6.1","mac","0","2023-02-28","13:00:17","780600946","1","1","experiment","5","dispFeedback_U","1000","1","69","IEV","POS","1","59","0.6704821126866683523","39.6259585146734067962","59","0.649860437412248082","69","40","10","4","1","4","6","4","36","35","7","29","2","2545","11461","770","4"
"6.6.1","mac","0","2023-02-28","13:00:17","780600946","1","1","experiment","5","experiment_U","461","1","32","IEV","POS","1","","","","","","32","40","10","4","1","4","6","4","36","35","7","29","2","2545","11461","770","4"
"6.6.1","mac","0","2023-02-28","13:00:17","780600946","1","1","experiment","5","dispFeedback_U","1000","1","32","IEV","POS","1","92","0.5201880673228485019","48.0311225529543008861","92","0.035905608915701881","32","40","10","4","1","4","7","4","36","36","7","29","2","3311","11553","777","7"
"6.6.1","mac","0","2023-02-28","13:00:17","780600946","1","1","experiment","6","experiment_noU","1983","1","100","IEV","POS","1","","","","","","100","35","45","0","0","0","0","5","42","0","12","28","2","3311","11553","777","7"
"6.6.1","mac","0","2023-02-28","13:00:17","780600946","1","1","experiment","6","dispFeedback_noU","1000","1","100","IEV","POS","1","82","0.5362654828658091066","44.0397879708436406077","82","0.851043150958382344","100","35","45","0","0","0","0","5","42","1","12","28","0","3233","11635","783","6"
"6.6.1","mac","0","2023-02-28","13:00:17","780600946","1","1","experiment","6","experiment_noU","598","1","48","IEV","POS","1","","","","","","48","35","45","0","0","0","0","5","42","1","12","28","0","3233","11635","783","6"
"6.6.1","mac","0","2023-02-28","13:00:17","780600946","1","1","experiment","6","dispFeedback_noU","1000","1","48","IEV","POS","1","172","0.3264959048529770813","56.2778574597650660394","172","0.7547086532587904406","48","35","45","0","0","0","0","5","42","2","12","28","0","4248","11807","793","10"
"6.6.1","mac","0","2023-02-28","13:00:17","780600946","1","1","experiment","6","experiment_noU","6500","1","0","IEV","POS","1","","","","","","0","35","45","0","0","0","0","5","42","2","12","28","0","4248","11807","793","10"
"6.6.1","mac","0","2023-02-28","13:00:17","780600946","1","1","experiment","6","dispFeedback_noU","1000","1","0","IEV","POS","1","68","0.6323676288968834713","43.288218787180603897","68","0.1285028304272570754","0","35","45","0","0","0","0","5","42","3","12","28","0","2750","11875","793","0"
"6.6.1","mac","0","2023-02-28","13:00:17","780600946","1","1","experiment","6","experiment_noU","5048","1","56","IEV","POS","1","","","","","","56","35","45","0","0","0","0","5","42","3","12","28","0","2750","11875","793","0"
"6.6.1","mac","0","2023-02-28","13:00:17","780600946","1","1","experiment","6","dispFeedback_noU","1000","1","56","IEV","POS","1","153","0.3567937865225442318","54.7611191867718716253","153","0.2915029517122318392","56","35","45","0","0","0","0","5","42","4","12","28","0","4098","12028","803","10"
"6.6.1","mac","0","2023-02-28","13:00:17","780600946","1","1","experiment","6","experiment_noU","737","1","54","IEV","POS","1","","","","","","54","35","45","0","0","0","0","5","42","4","12","28","0","4098","12028","803","10"
"6.6.1","mac","0","2023-02-28","13:00:17","780600946","1","1","experiment","6","dispFeedback_noU","1000","1","54","IEV","POS","1","233","0.2416849169972934697","56.3665520484426920689","233","0.9927227017452759927","54","35","45","0","0","0","0","5","42","5","12","28","0","4687","12261","813","10"
"6.6.1","mac","0","2023-02-28","13:00:17","780600946","1","1","experiment","6","experiment_noU","4959","1","55","IEV","POS","1","","","","","","55","35","45","0","0","0","0","5","42","5","12","28","0","4687","12261","813","10"
"6.6.1","mac","0","2023-02-28","13:00:17","780600946","1","1","experiment","6","dispFeedback_noU","1000","1","55","IEV","POS","1","136","0.3852975864773013348","52.3262631202655512652","136","0.6815955938495685817","55","35","45","0","0","0","0","5","42","6","12","28","0","3959","12397","822","9"
"6.6.1","mac","0","2023-02-28","13:00:17","780600946","1","1","experiment","6","experiment_noU","1396","1","28","IEV","POS","1","","","","","","28","35","45","0","0","0","0","5","42","6","12","28","0","3959","12397","822","9"
"6.6.1","mac","0","2023-02-28","13:00:17","780600946","1","1","experiment","6","dispFeedback_noU","1000","1","28","IEV","POS","1","149","0.3674149025928552525","54.8047422659512548648","149","0.6129029520351679805","28","35","45","0","0","0","0","5","42","7","12","28","0","4046","12546","832","10"
"6.6.1","mac","0","2023-02-28","13:00:17","780600946","1","1","experiment","6","experiment_noU","6463","1","22","IEV","POS","1","","","","","","22","35","45","0","0","0","0","5","42","7","12","28","0","4046","12546","832","10"
"6.6.1","mac","0","2023-02-28","13:00:17","780600946","1","1","experiment","6","dispFeedback_noU","1000","1","22","IEV","POS","1","127","0.4155572726541520434","52.8322470193415014705","127","0.436700048958114373","22","35","45","0","0","0","0","5","42","8","12","28","0","3813","12673","841","9"
"6.6.1","mac","0","2023-02-28","13:00:17","780600946","1","1","experiment","6","experiment_noU","1366","1","27","IEV","POS","1","","","","","","27","35","45","0","0","0","0","5","42","8","12","28","0","3813","12673","841","9"
"6.6.1","mac","0","2023-02-28","13:00:17","780600946","1","1","experiment","6","dispFeedback_noU","1000","1","27","IEV","POS","1","138","0.3838540338786263773","53.1468998801983119051","138","0.1842432083059668546","27","35","45","0","0","0","0","5","42","9","12","28","0","3966","12811","851","10"
"6.6.1","mac","0","2023-02-28","13:00:17","780600946","1","1","experiment","6","experiment_noU","6500","1","80","IEV","POS","1","","","","","","80","35","45","0","0","0","0","5","42","9","12","28","0","3966","12811","851","10"
"6.6.1","mac","0","2023-02-28","13:00:17","780600946","1","1","experiment","6","dispFeedback_noU","1000","1","80","IEV","POS","1","33","0.7947885601806097267","26.0752011859962244955","33","0.5686362331194422248","80","35","45","0","0","0","0","5","42","10","12","28","0","1750","12844","851","0"
"6.6.1","mac","0","2023-02-28","13:00:17","780600946","1","1","experiment","6","experiment_noU","4682","1","60","IEV","POS","1","","","","","","60","35","45","0","0","0","0","5","42","10","12","28","0","1750","12844","851","0"
"6.6.1","mac","0","2023-02-28","13:00:17","780600946","1","1","experiment","6","dispFeedback_noU","1000","1","60","IEV","POS","1","131","0.3908725759675426015","51.338204686117478559","131","0.328424106661329096","60","35","45","0","0","0","0","5","42","11","12","28","0","3932","12975","860","9"
"6.6.1","mac","0","2023-02-28","13:00:17","780600946","1","1","experiment","6","experiment_noU","1309","1","31","IEV","POS","1","","","","","","31","35","45","0","0","0","0","5","42","11","12","28","0","3932","12975","860","9"
"6.6.1","mac","0","2023-02-28","13:00:17","780600946","1","1","experiment","6","dispFeedback_noU","1000","1","31","IEV","POS","1","155","0.3545541688448748396","54.8280016843294362161","155","0.9049590413703022529","31","35","45","0","0","0","0","5","42","12","12","28","1","4109","13130","870","10"
"6.6.1","mac","0","2023-02-28","13:00:17","780600946","1","1","experiment","6","experiment_U","3759","1","77","IEV","POS","1","","","","","","77","35","45","0","0","0","0","5","42","12","12","28","1","4109","13130","870","10"
"6.6.1","mac","0","2023-02-28","13:00:17","780600946","1","1","experiment","6","dispFeedback_U","1000","1","77","IEV","POS","1","131","0.4059957974268844638","53.1690170378270181573","131","0.1931010438578904254","77","35","45","0","0","1","0","5","42","13","12","28","1","3859","13261","879","9"
"6.6.1","mac","0","2023-02-28","13:00:17","780600946","1","1","experiment","6","experiment_U","2648","1","0","IEV","POS","1","","","","","","0","35","45","0","0","1","0","5","42","13","12","28","1","3859","13261","879","9"
"6.6.1","mac","0","2023-02-28","13:00:17","780600946","1","1","experiment","6","dispFeedback_U","1000","1","0","IEV","POS","1","130","0.397907748698805408","51.8552800853347264365","1","0.459928563204577312","0","35","45","0","0","2","0","5","42","14","12","28","1","3898","13262","880","1"
"6.6.1","mac","0","2023-02-28","13:00:17","780600946","1","1","experiment","6","experiment_U","1466","1","75","IEV","POS","1","","","","","","75","35","45","0","0","2","0","5","42","14","12","28","1","3898","13262","880","1"
"6.6.1","mac","0","2023-02-28","13:00:17","780600946","1","1","experiment","6","dispFeedback_U","1000","1","75","IEV","POS","1","33","0.8280428948816953572","27.6162731780450627639","33","0.2252540865971832673","75","35","45","1","0","3","0","5","42","15","12","28","1","1466","13295","883","3"
"6.6.1","mac","0","2023-02-28","13:00:17","780600946","1","1","experiment","6","experiment_U","838","1","26","IEV","POS","1","","","","","","26","35","45","1","0","3","0","5","42","15","12","28","1","1466","13295","883","3"
"6.6.1","mac","0","2023-02-28","13:00:17","780600946","1","1","experiment","6","dispFeedback_U","1000","1","26","IEV","POS","1","97","0.5042277683690779","48.7721892872307805078","97","0.385394323008459605","26","35","45","1","0","4","0","5","42","16","12","28","1","3388","13392","890","7"
"6.6.1","mac","0","2023-02-28","13:00:17","780600946","1","1","experiment","6","experiment_U","6500","1","37","IEV","POS","1","","","","","","37","35","45","1","0","4","0","5","42","16","12","28","1","3388","13392","890","7"
"6.6.1","mac","0","2023-02-28","13:00:17","780600946","1","1","experiment","6","dispFeedback_U","1000","1","37","IEV","POS","1","218","0.2579561717207233817","56.2218730014936056705","1","0.4826423661975754453","37","35","45","1","0","5","0","5","42","17","12","28","1","4600","13393","890","0"
"6.6.1","mac","0","2023-02-28","13:00:17","780600946","1","1","experiment","6","experiment_U","3176","1","35","IEV","POS","1","","","","","","35","35","45","1","0","5","0","5","42","17","12","28","1","4600","13393","890","0"
"6.6.1","mac","0","2023-02-28","13:00:17","780600946","1","1","experiment","6","dispFeedback_U","1000","1","35","IEV","POS","1","25","0.8552463101335147089","21.145045524955449423","25","0.3763999218066222952","35","35","45","1","0","6","0","5","42","18","12","28","1","1176","13418","892","2"
"6.6.1","mac","0","2023-02-28","13:00:17","780600946","1","1","experiment","6","experiment_U","1106","1","30","IEV","POS","1","","","","","","30","35","45","1","0","6","0","5","42","18","12","28","1","1176","13418","892","2"
"6.6.1","mac","0","2023-02-28","13:00:17","780600946","1","1","experiment","6","dispFeedback_U","1000","1","30","IEV","POS","1","131","0.4066186949801697259","53.1473500930012292542","1","0.5060228517991544051","30","35","45","1","0","7","0","5","42","19","12","28","1","3856","13419","893","1"
"6.6.1","mac","0","2023-02-28","13:00:17","780600946","1","1","experiment","6","experiment_U","1488","1","96","IEV","POS","1","","","","","","96","35","45","1","0","7","0","5","42","19","12","28","1","3856","13419","893","1"
"6.6.1","mac","0","2023-02-28","13:00:17","780600946","1","1","experiment","6","dispFeedback_U","1000","1","96","IEV","POS","1","60","0.67174741972759211","40.2145658891666499812","60","0.1904903736874671571","96","35","45","1","0","8","0","5","42","20","12","28","1","2538","13479","897","4"
"6.6.1","mac","0","2023-02-28","13:00:17","780600946","1","1","experiment","6","experiment_U","4482","1","87","IEV","POS","1","","","","","","87","35","45","1","0","8","0","5","42","20","12","28","1","2538","13479","897","4"
"6.6.1","mac","0","2023-02-28","13:00:17","780600946","1","1","experiment","6","dispFeedback_U","1000","1","87","IEV","POS","1","13","0.899722243636786656","11.415659654964946057","13","0.3521505567133776937","87","35","45","2","0","9","0","5","42","21","12","28","1","82","13492","898","1"
"6.6.1","mac","0","2023-02-28","13:00:17","780600946","1","1","experiment","6","experiment_U","1485","1","60","IEV","POS","1","","","","","","60","35","45","2","0","9","0","5","42","21","12","28","1","82","13492","898","1"
"6.6.1","mac","0","2023-02-28","13:00:17","780600946","1","1","experiment","6","dispFeedback_U","1000","1","60","IEV","POS","1","19","0.8835576183224082003","17.134443883223596572","19","0.3750996509043266203","60","35","45","2","0","10","0","5","42","22","12","28","1","735","13511","899","1"
"6.6.1","mac","0","2023-02-28","13:00:17","780600946","1","1","experiment","6","experiment_U","6500","1","84","IEV","POS","1","","","","","","84","35","45","2","0","10","0","5","42","22","12","28","1","735","13511","899","1"
"6.6.1","mac","0","2023-02-28","13:00:17","780600946","1","1","experiment","6","dispFeedback_U","1000","1","84","IEV","POS","1","44","0.7676011194625315115","33.9719611458486312472","44","0.5697148126945167368","84","35","45","3","0","11","0","5","42","23","12","28","1","1950","13555","899","0"
"6.6.1","mac","0","2023-02-28","13:00:17","780600946","1","1","experiment","6","experiment_U","1314","1","98","IEV","POS","1","","","","","","98","35","45","3","0","11","0","5","42","23","12","28","1","1950","13555","899","0"
"6.6.1","mac","0","2023-02-28","13:00:17","780600946","1","1","experiment","6","dispFeedback_U","1000","1","98","IEV","POS","1","55","0.6849649541342656134","37.9748495842405588974","1","0.7231896728564030097","98","35","45","3","0","12","0","5","42","24","12","28","1","2464","13556","900","1"
"6.6.1","mac","0","2023-02-28","13:00:17","780600946","1","1","experiment","6","experiment_U","5435","1","51","IEV","POS","1","","","","","","51","35","45","3","0","12","0","5","42","24","12","28","1","2464","13556","900","1"
"6.6.1","mac","0","2023-02-28","13:00:17","780600946","1","1","experiment","6","dispFeedback_U","1000","1","51","IEV","POS","1","162","0.3290996216392731988","53.2504178143097135489","1","0.3767491887269423523","51","35","45","3","0","13","0","5","42","25","12","28","1","4235","13557","901","1"
"6.6.1","mac","0","2023-02-28","13:00:17","780600946","1","1","experiment","6","experiment_U","5159","1","60","IEV","POS","1","","","","","","60","35","45","3","0","13","0","5","42","25","12","28","1","4235","13557","901","1"
"6.6.1","mac","0","2023-02-28","13:00:17","780600946","1","1","experiment","6","dispFeedback_U","1000","1","60","IEV","POS","1","188","0.2946489294196473208","55.2589164368141609884","1","0.6864719732400197394","60","35","45","3","0","14","0","5","42","26","12","28","1","4409","13558","902","1"
"6.6.1","mac","0","2023-02-28","13:00:17","780600946","1","1","experiment","6","experiment_U","6262","1","79","IEV","POS","1","","","","","","79","35","45","3","0","14","0","5","42","26","12","28","1","4409","13558","902","1"
"6.6.1","mac","0","2023-02-28","13:00:17","780600946","1","1","experiment","6","dispFeedback_U","1000","1","79","IEV","POS","1","27","0.8284649462098829797","22.6014738245496324964","27","0.7984835160426989598","79","35","45","4","0","15","0","5","42","27","12","28","0","1462","13585","904","2"
"6.6.1","mac","0","2023-02-28","13:00:17","780600946","1","1","experiment","6","experiment_noU","4402","1","65","IEV","POS","1","","","","","","65","35","45","4","0","15","0","5","42","27","12","28","0","1462","13585","904","2"
"6.6.1","mac","0","2023-02-28","13:00:17","780600946","1","1","experiment","6","dispFeedback_noU","1000","1","65","IEV","POS","1","135","0.3970792730163343887","53.475015820868598837","135","0.5765026094337233342","65","35","45","4","0","15","0","5","42","28","12","28","2","3902","13720","913","9"
"6.6.1","mac","0","2023-02-28","13:00:17","780600946","1","1","experiment","6","experiment_U","775","1","41","IEV","POS","1","","","","","","41","35","45","4","0","15","0","5","42","28","12","28","2","3902","13720","913","9"
"6.6.1","mac","0","2023-02-28","13:00:17","780600946","1","1","experiment","6","dispFeedback_U","1000","1","41","IEV","POS","1","153","0.3614848489302086576","55.342425298064803485","1","0.617169452509183758","41","35","45","4","0","15","1","5","42","29","12","28","2","4075","13721","914","1"
"6.6.1","mac","0","2023-02-28","13:00:17","780600946","1","1","experiment","6","experiment_U","2225","1","7","IEV","POS","1","","","","","","7","35","45","4","0","15","1","5","42","29","12","28","2","4075","13721","914","1"
"6.6.1","mac","0","2023-02-28","13:00:17","780600946","1","1","experiment","6","dispFeedback_U","1000","1","7","IEV","POS","1","127","0.4130609275334531372","52.5079749615013895436","127","0.4049757419631294098","7","35","45","4","0","15","2","5","42","30","12","28","2","3825","13848","923","9"
"6.6.1","mac","0","2023-02-28","13:00:17","780600946","1","1","experiment","6","experiment_U","5929","1","32","IEV","POS","1","","","","","","32","35","45","4","0","15","2","5","42","30","12","28","2","3825","13848","923","9"
"6.6.1","mac","0","2023-02-28","13:00:17","780600946","1","1","experiment","6","dispFeedback_U","1000","1","32","IEV","POS","1","118","0.4226371643472714434","50.0412830671706672092","118","0.4084295035359518655","32","35","45","4","0","15","3","5","42","31","12","28","2","3779","13966","931","8"
"6.6.1","mac","0","2023-02-28","13:00:17","780600946","1","1","experiment","6","experiment_U","5797","1","39","IEV","POS","1","","","","","","39","35","45","4","0","15","3","5","42","31","12","28","2","3779","13966","931","8"
"6.6.1","mac","0","2023-02-28","13:00:17","780600946","1","1","experiment","6","dispFeedback_U","1000","1","39","IEV","POS","1","137","0.3774706790910305476","51.8558722599722514701","1","0.475569095806118336","39","35","45","4","0","15","4","5","42","32","12","28","2","3997","13967","932","1"
"6.6.1","mac","0","2023-02-28","13:00:17","780600946","1","1","experiment","6","experiment_U","3688","1","79","IEV","POS","1","","","","","","79","35","45","4","0","15","4","5","42","32","12","28","2","3997","13967","932","1"
"6.6.1","mac","0","2023-02-28","13:00:17","780600946","1","1","experiment","6","dispFeedback_U","1000","1","79","IEV","POS","1","130","0.3999798365217571705","52.1763860728739530259","1","0.481625214098399812","79","35","45","4","0","15","5","5","42","33","12","28","2","3888","13968","933","1"
"6.6.1","mac","0","2023-02-28","13:00:17","780600946","1","1","experiment","6","experiment_U","3975","1","75","IEV","POS","1","","","","","","75","35","45","4","0","15","5","5","42","33","12","28","2","3888","13968","933","1"
"6.6.1","mac","0","2023-02-28","13:00:17","780600946","1","1","experiment","6","dispFeedback_U","1000","1","75","IEV","POS","1","141","0.3819991794243814964","53.9749004779330547876","1","0.8022316628606598332","75","35","45","4","0","15","6","5","42","34","12","28","2","3975","13969","934","1"
"6.6.1","mac","0","2023-02-28","13:00:17","780600946","1","1","experiment","6","experiment_U","2941","1","34","IEV","POS","1","","","","","","34","35","45","4","0","15","6","5","42","34","12","28","2","3975","13969","934","1"
"6.6.1","mac","0","2023-02-28","13:00:17","780600946","1","1","experiment","6","dispFeedback_U","1000","1","34","IEV","POS","1","20","0.875300547367379389","17.5455177398589938775","1","0.9334459674855335454","34","35","45","4","1","15","7","5","42","35","12","28","2","891","13970","935","1"
"6.6.1","mac","0","2023-02-28","13:00:17","780600946","1","1","experiment","6","experiment_U","725","1","16","IEV","POS","1","","","","","","16","35","45","4","1","15","7","5","42","35","12","28","2","891","13970","935","1"
"6.6.1","mac","0","2023-02-28","13:00:17","780600946","1","1","experiment","6","dispFeedback_U","1000","1","16","IEV","POS","1","69","0.6275896562391277689","43.5653014406208072273","1","0.9914339825025373365","16","35","45","4","1","15","8","5","42","36","12","28","2","2775","13971","936","1"
"6.6.1","mac","0","2023-02-28","13:00:17","780600946","1","1","experiment","6","experiment_U","340","1","94","IEV","POS","1","","","","","","94","35","45","4","1","15","8","5","42","36","12","28","2","2775","13971","936","1"
"6.6.1","mac","0","2023-02-28","13:00:17","780600946","1","1","experiment","6","dispFeedback_U","1000","1","94","IEV","POS","1","28","0.8453754350798965422","24.0376709034371671692","1","0.9326871121145522414","94","35","45","4","1","15","9","5","42","37","12","28","2","1290","13972","937","1"
"6.6.1","mac","0","2023-02-28","13:00:17","780600946","1","1","experiment","6","experiment_U","413","1","24","IEV","POS","1","","","","","","24","35","45","4","1","15","9","5","42","37","12","28","2","1290","13972","937","1"
