"build","computer.platform","computer.touch","date","time","subject","group","sessionid","blockcode","blocknum","trialcode","latency","randStart","startPos","scrfunc","rtvspos","randStart","mag","freq","ev","inc","rng","startPos","fogPos1","fogPos2","chooseUncertainty1","chooseUncertainty2","uncertaintyCount1","uncertaintyCount2","blockCount","ntrials","trialCount","uncertaintyStart1","uncertaintyStart2","uncertainty_block","rt_shifted","totalPoints","totalEarnings","Earnings"
"6.6.1","mac","0","2023-02-27","17:52:46","296142977","1","1","instructions","1","instructions1","87350","1","75","IEV","POS","1","","","","","","75","0","0","0","0","0","0","0","10","0","0","0","0","","0","0",""
"6.6.1","mac","0","2023-02-27","17:52:46","296142977","1","1","instructions","1","displayGoodJob","4071","1","75","IEV","POS","1","","","","","","75","0","0","0","0","0","0","0","10","0","0","0","0","","0","0",""
"6.6.1","mac","0","2023-02-27","17:52:46","296142977","1","1","instructions","1","feedback2_5","3000","1","75","IEV","POS","1","","","","","","75","0","0","0","0","0","0","0","10","0","0","0","0","","0","0","0"
"6.6.1","mac","0","2023-02-27","17:52:46","296142977","1","1","instructions","1","instructions3","3198","1","75","IEV","POS","1","","","","","","75","0","0","0","0","0","0","0","10","0","0","0","0","","0","0","0"
"6.6.1","mac","0","2023-02-27","17:52:46","296142977","1","1","instructions","1","instructions4","2818","1","75","IEV","POS","1","","","","","","75","0","0","0","0","0","0","0","10","0","0","0","0","","0","0","0"
"6.6.1","mac","0","2023-02-27","17:52:46","296142977","1","1","instructions","1","sampleResponse","3000","1","75","IEV","POS","1","","","","","","75","0","0","0","0","0","0","0","10","0","0","0","0","2818","0","0","0"
"6.6.1","mac","0","2023-02-27","17:52:46","296142977","1","1","instructions","1","instructions5","1148","1","75","IEV","POS","1","","","","","","75","0","0","0","0","0","0","0","10","0","0","0","0","2818","0","0","0"
"6.6.1","mac","0","2023-02-27","17:52:46","296142977","1","1","instructions","1","countdown","1000","1","75","IEV","POS","1","","","","","","75","0","0","0","0","0","0","0","10","0","0","0","0","2818","0","0","0"
"6.6.1","mac","0","2023-02-27","17:52:46","296142977","1","1","experiment","2","experiment_noU","1557","1","24","CEVR","POS","1","","","","","","24","30","35","0","0","0","0","1","33","0","5","31","0","2818","0","0","0"
"6.6.1","mac","0","2023-02-27","17:52:46","296142977","1","1","experiment","2","dispFeedback_noU","1000","1","24","CEVR","POS","1","70","0.5647623201046664265","39.2590492804186723674","70","0.8202075189492217255","24","30","35","0","0","0","0","1","33","1","5","31","0","4007","70","5","5"
"6.6.1","mac","0","2023-02-27","17:52:46","296142977","1","1","experiment","2","experiment_noU","1356","1","97","CEVR","POS","1","","","","","","97","30","35","0","0","0","0","1","33","1","5","31","0","4007","70","5","5"
"6.6.1","mac","0","2023-02-27","17:52:46","296142977","1","1","experiment","2","dispFeedback_noU","1000","1","97","CEVR","POS","1","107","0.3368886576482830741","35.9893340270551576054","107","0.5160757146114659522","97","30","35","0","0","0","0","1","33","2","5","31","0","2456","177","13","8"
"6.6.1","mac","0","2023-02-27","17:52:46","296142977","1","1","experiment","2","experiment_noU","639","1","61","CEVR","POS","1","","","","","","61","30","35","0","0","0","0","1","33","2","5","31","0","2456","177","13","8"
"6.6.1","mac","0","2023-02-27","17:52:46","296142977","1","1","experiment","2","dispFeedback_noU","1000","1","61","CEVR","POS","1","40","0.9515062454077883869","37.9515062454077849452","40","0.1678317105788345587","61","30","35","0","0","0","0","1","33","3","5","31","0","4939","217","16","3"
"6.6.1","mac","0","2023-02-27","17:52:46","296142977","1","1","experiment","2","experiment_noU","1663","1","19","CEVR","POS","1","","","","","","19","30","35","0","0","0","0","1","33","3","5","31","0","4939","217","16","3"
"6.6.1","mac","0","2023-02-27","17:52:46","296142977","1","1","experiment","2","dispFeedback_noU","1000","1","19","CEVR","POS","1","70","0.5313910545752975612","37.0000000000000071054","70","0.9125157543254354131","19","30","35","0","0","0","0","1","33","4","5","31","0","3863","287","21","5"
"6.6.1","mac","0","2023-02-27","17:52:46","296142977","1","1","experiment","2","experiment_noU","2600","1","48","CEVR","POS","1","","","","","","48","30","35","0","0","0","0","1","33","4","5","31","0","3863","287","21","5"
"6.6.1","mac","0","2023-02-27","17:52:46","296142977","1","1","experiment","2","dispFeedback_noU","1000","1","48","CEVR","POS","1","143","0.2564356435643564414","36.7435643564356411161","143","0.8514264551576754547","48","30","35","0","0","0","0","1","33","5","5","31","1","1250","430","31","10"
"6.6.1","mac","0","2023-02-27","17:52:46","296142977","1","1","experiment","2","experiment_U","3243","1","35","CEVR","POS","1","","","","","","35","30","35","0","0","0","0","1","33","5","5","31","1","1250","430","31","10"
"6.6.1","mac","0","2023-02-27","17:52:46","296142977","1","1","experiment","2","dispFeedback_U","1000","1","35","CEVR","POS","1","146","0.2560806802452046949","37.5121613604904169392","1","0.2997315887593970385","35","30","35","0","0","1","0","1","33","6","5","31","1","1243","431","32","1"
"6.6.1","mac","0","2023-02-27","17:52:46","296142977","1","1","experiment","2","experiment_U","3987","1","17","CEVR","POS","1","","","","","","17","30","35","0","0","1","0","1","33","6","5","31","1","1243","431","32","1"
"6.6.1","mac","0","2023-02-27","17:52:46","296142977","1","1","experiment","2","dispFeedback_U","1000","1","17","CEVR","POS","1","144","0.2484174179934778293","35.7579129100326014168","1","0.6873086841514587375","17","30","35","0","0","2","0","1","33","7","5","31","1","1087","432","33","1"
"6.6.1","mac","0","2023-02-27","17:52:46","296142977","1","1","experiment","2","experiment_U","2839","1","47","CEVR","POS","1","","","","","","47","30","35","0","0","2","0","1","33","7","5","31","1","1087","432","33","1"
"6.6.1","mac","0","2023-02-27","17:52:46","296142977","1","1","experiment","2","dispFeedback_U","1000","1","47","CEVR","POS","1","140","0.2664060892820407367","37.2664060892820359072","1","0.4274710976582651867","47","30","35","0","0","3","0","1","33","8","5","31","1","1439","433","34","1"
"6.6.1","mac","0","2023-02-27","17:52:46","296142977","1","1","experiment","2","experiment_U","3000","1","27","CEVR","POS","1","","","","","","27","30","35","0","0","3","0","1","33","8","5","31","1","1439","433","34","1"
"6.6.1","mac","0","2023-02-27","17:52:46","296142977","1","1","experiment","2","dispFeedback_U","1000","1","27","CEVR","POS","1","164","0.2271929824561403355","37.2271929824561382816","1","0.9541537747611649189","27","30","35","0","0","4","0","1","33","9","5","31","1","600","434","35","1"
"6.6.1","mac","0","2023-02-27","17:52:46","296142977","1","1","experiment","2","experiment_U","4772","1","32","CEVR","POS","1","","","","","","32","30","35","0","0","4","0","1","33","9","5","31","1","600","434","35","1"
"6.6.1","mac","0","2023-02-27","17:52:46","296142977","1","1","experiment","2","dispFeedback_U","1000","1","32","CEVR","POS","1","105","0.3520935290918977278","36.9999999999999928946","1","0.9757074038441543307","32","30","35","0","0","5","0","1","33","10","5","31","1","2622","435","36","1"
"6.6.1","mac","0","2023-02-27","17:52:46","296142977","1","1","experiment","2","experiment_U","907","1","33","CEVR","POS","1","","","","","","33","30","35","0","0","5","0","1","33","10","5","31","1","2622","435","36","1"
"6.6.1","mac","0","2023-02-27","17:52:46","296142977","1","1","experiment","2","dispFeedback_U","1000","1","33","CEVR","POS","1","72","0.5194544725230645366","37.5194544725230514359","72","0.2652272966842230684","33","30","35","0","0","6","0","1","33","11","5","31","1","3807","507","41","5"
"6.6.1","mac","0","2023-02-27","17:52:46","296142977","1","1","experiment","2","experiment_U","3414","1","96","CEVR","POS","1","","","","","","96","30","35","0","0","6","0","1","33","11","5","31","1","3807","507","41","5"
"6.6.1","mac","0","2023-02-27","17:52:46","296142977","1","1","experiment","2","dispFeedback_U","1000","1","96","CEVR","POS","1","49","0.7053376906318082895","34.8839869281045693583","49","0.2477192094660641553","96","30","35","0","0","7","0","1","33","12","5","31","1","4464","556","45","4"
"6.6.1","mac","0","2023-02-27","17:52:46","296142977","1","1","experiment","2","experiment_U","3337","1","8","CEVR","POS","1","","","","","","8","30","35","0","0","7","0","1","33","12","5","31","1","4464","556","45","4"
"6.6.1","mac","0","2023-02-27","17:52:46","296142977","1","1","experiment","2","dispFeedback_U","1000","1","8","CEVR","POS","1","37","0.9862909367859863385","36.0137090632140228763","37","0.3142110852790556685","8","30","35","0","0","8","0","1","33","13","5","31","1","4987","593","48","3"
"6.6.1","mac","0","2023-02-27","17:52:46","296142977","1","1","experiment","2","experiment_U","4556","1","60","CEVR","POS","1","","","","","","60","30","35","0","0","8","0","1","33","13","5","31","1","4987","593","48","3"
"6.6.1","mac","0","2023-02-27","17:52:46","296142977","1","1","experiment","2","dispFeedback_U","1000","1","60","CEVR","POS","1","72","0.5192461908580593422","37.5192461908580625618","1","0.5740925892195879454","60","30","35","0","0","9","0","1","33","14","5","31","1","3806","594","49","1"
"6.6.1","mac","0","2023-02-27","17:52:46","296142977","1","1","experiment","2","experiment_U","2028","1","24","CEVR","POS","1","","","","","","24","30","35","0","0","9","0","1","33","14","5","31","1","3806","594","49","1"
"6.6.1","mac","0","2023-02-27","17:52:46","296142977","1","1","experiment","2","dispFeedback_U","1000","1","24","CEVR","POS","1","55","0.7107574094401756248","39.1322722283205237659","55","0.6958413160629201011","24","30","35","0","0","10","0","1","33","15","5","31","1","4478","649","53","4"
"6.6.1","mac","0","2023-02-27","17:52:46","296142977","1","1","experiment","2","experiment_U","4050","1","75","CEVR","POS","1","","","","","","75","30","35","0","0","10","0","1","33","15","5","31","1","4478","649","53","4"
"6.6.1","mac","0","2023-02-27","17:52:46","296142977","1","1","experiment","2","dispFeedback_U","1000","1","75","CEVR","POS","1","64","0.575555555555555598","37","1","0.816691570872601913","75","30","35","0","0","11","0","1","33","16","5","31","1","4050","650","54","1"
"6.6.1","mac","0","2023-02-27","17:52:46","296142977","1","1","experiment","2","experiment_U","6508","1","19","CEVR","POS","1","","","","","","19","30","35","0","0","11","0","1","33","16","5","31","1","4050","650","54","1"
"6.6.1","mac","0","2023-02-27","17:52:46","296142977","1","1","experiment","2","dispFeedback_U","1000","1","19","CEVR","POS","1","77","0.4996141975308641681","38.4988425925925952242","1","0.710375449785584423","19","30","35","0","0","12","0","1","33","17","5","31","1","3708","651","55","1"
"6.6.1","mac","0","2023-02-27","17:52:46","296142977","1","1","experiment","2","experiment_U","2448","1","50","CEVR","POS","1","","","","","","50","30","35","0","0","12","0","1","33","17","5","31","1","3708","651","55","1"
"6.6.1","mac","0","2023-02-27","17:52:46","296142977","1","1","experiment","2","dispFeedback_U","1000","1","50","CEVR","POS","1","147","0.2538220305762446394","37.2538220305762521889","1","0.3265767200678998394","50","30","35","0","0","13","0","1","33","18","5","31","1","1198","652","56","1"
"6.6.1","mac","0","2023-02-27","17:52:46","296142977","1","1","experiment","2","experiment_U","4051","1","17","CEVR","POS","1","","","","","","17","30","35","0","0","13","0","1","33","18","5","31","1","1198","652","56","1"
"6.6.1","mac","0","2023-02-27","17:52:46","296142977","1","1","experiment","2","dispFeedback_U","1000","1","17","CEVR","POS","1","151","0.2515051466304136785","38.006020586521650273","1","0.5229682502157446677","17","30","35","0","0","14","0","1","33","19","5","31","1","1151","653","57","1"
"6.6.1","mac","0","2023-02-27","17:52:46","296142977","1","1","experiment","2","experiment_U","2395","1","80","CEVR","POS","1","","","","","","80","30","35","0","0","14","0","1","33","19","5","31","1","1151","653","57","1"
"6.6.1","mac","0","2023-02-27","17:52:46","296142977","1","1","experiment","2","dispFeedback_U","1000","1","80","CEVR","POS","1","104","0.35430916552667574","36.9999999999999928946","1","0.7145973478245076782","80","30","35","0","0","15","0","1","33","20","5","31","0","2645","654","58","1"
"6.6.1","mac","0","2023-02-27","17:52:46","296142977","1","1","experiment","2","experiment_noU","5981","1","87","CEVR","POS","1","","","","","","87","30","35","0","0","15","0","1","33","20","5","31","0","2645","654","58","1"
"6.6.1","mac","0","2023-02-27","17:52:46","296142977","1","1","experiment","2","dispFeedback_noU","1000","1","87","CEVR","POS","1","133","0.2744225471498198954","36.4511549057003634289","133","0.8469867733882243677","87","30","35","0","0","15","0","1","33","21","5","31","0","1581","787","67","9"
"6.6.1","mac","0","2023-02-27","17:52:46","296142977","1","1","experiment","2","experiment_noU","3039","1","51","CEVR","POS","1","","","","","","51","30","35","0","0","15","0","1","33","21","5","31","0","1581","787","67","9"
"6.6.1","mac","0","2023-02-27","17:52:46","296142977","1","1","experiment","2","dispFeedback_noU","1000","1","51","CEVR","POS","1","124","0.2902936561309123475","36.1291190316072601263","124","0.9839893507268254735","51","30","35","0","0","15","0","1","33","22","5","31","0","1839","911","75","8"
"6.6.1","mac","0","2023-02-27","17:52:46","296142977","1","1","experiment","2","experiment_noU","3260","1","46","CEVR","POS","1","","","","","","46","30","35","0","0","15","0","1","33","22","5","31","0","1839","911","75","8"
"6.6.1","mac","0","2023-02-27","17:52:46","296142977","1","1","experiment","2","dispFeedback_noU","1000","1","46","CEVR","POS","1","130","0.2884187082405345048","37.5768374164810623483","130","0.6318513042367648325","46","30","35","0","0","15","0","1","33","23","5","31","0","1810","1041","84","9"
"6.6.1","mac","0","2023-02-27","17:52:46","296142977","1","1","experiment","2","experiment_noU","999","1","89","CEVR","POS","1","","","","","","89","30","35","0","0","15","0","1","33","23","5","31","0","1810","1041","84","9"
"6.6.1","mac","0","2023-02-27","17:52:46","296142977","1","1","experiment","2","dispFeedback_noU","1000","1","89","CEVR","POS","1","132","0.2814605520539013583","37.2814605520539075201","132","0.8291332902920277581","89","30","35","0","0","15","0","1","33","24","5","31","0","1699","1173","93","9"
"6.6.1","mac","0","2023-02-27","17:52:46","296142977","1","1","experiment","2","experiment_noU","1508","1","86","CEVR","POS","1","","","","","","86","30","35","0","0","15","0","1","33","24","5","31","0","1699","1173","93","9"
"6.6.1","mac","0","2023-02-27","17:52:46","296142977","1","1","experiment","2","dispFeedback_noU","1000","1","86","CEVR","POS","1","122","0.3052805280528052556","37.3052805280528048115","122","0.8233742063919488041","86","30","35","0","0","15","0","1","33","25","5","31","0","2058","1295","101","8"
"6.6.1","mac","0","2023-02-27","17:52:46","296142977","1","1","experiment","2","experiment_noU","3323","1","47","CEVR","POS","1","","","","","","47","30","35","0","0","15","0","1","33","25","5","31","0","2058","1295","101","8"
"6.6.1","mac","0","2023-02-27","17:52:46","296142977","1","1","experiment","2","dispFeedback_noU","1000","1","47","CEVR","POS","1","125","0.2958647475439799002","37","125","0.9809768050864750011","47","30","35","0","0","15","0","1","33","26","5","31","0","1923","1420","110","9"
"6.6.1","mac","0","2023-02-27","17:52:46","296142977","1","1","experiment","2","experiment_noU","626","1","4","CEVR","POS","1","","","","","","4","30","35","0","0","15","0","1","33","26","5","31","0","1923","1420","110","9"
"6.6.1","mac","0","2023-02-27","17:52:46","296142977","1","1","experiment","2","dispFeedback_noU","1000","1","4","CEVR","POS","1","124","0.3065814393939393923","37.9197443181818201197","124","0.4465626053154846953","4","30","35","0","0","15","0","1","33","27","5","31","0","2076","1544","118","8"
"6.6.1","mac","0","2023-02-27","17:52:46","296142977","1","1","experiment","2","experiment_noU","3984","1","32","CEVR","POS","1","","","","","","32","30","35","0","0","15","0","1","33","27","5","31","0","2076","1544","118","8"
"6.6.1","mac","0","2023-02-27","17:52:46","296142977","1","1","experiment","2","dispFeedback_noU","1000","1","32","CEVR","POS","1","129","0.2899686520376175136","37.289968652037622121","129","0.3390567475787961693","32","30","35","0","0","15","0","1","33","28","5","31","0","1834","1673","127","9"
"6.6.1","mac","0","2023-02-27","17:52:46","296142977","1","1","experiment","2","experiment_noU","2137","1","72","CEVR","POS","1","","","","","","72","30","35","0","0","15","0","1","33","28","5","31","0","1834","1673","127","9"
"6.6.1","mac","0","2023-02-27","17:52:46","296142977","1","1","experiment","2","dispFeedback_noU","1000","1","72","CEVR","POS","1","120","0.3002550428935775728","36.0992348713192683363","120","0.7224349437100894278","72","30","35","0","0","15","0","1","33","29","5","31","0","1987","1793","135","8"
"6.6.1","mac","0","2023-02-27","17:52:46","296142977","1","1","experiment","2","experiment_noU","4038","1","33","CEVR","POS","1","","","","","","33","30","35","0","0","15","0","1","33","29","5","31","0","1987","1793","135","8"
"6.6.1","mac","0","2023-02-27","17:52:46","296142977","1","1","experiment","2","dispFeedback_noU","1000","1","33","CEVR","POS","1","129","0.2968821641448876614","38.1875286565795519778","129","0.0127818898793267757","33","30","35","0","0","15","0","1","33","30","5","31","0","1938","1922","144","9"
"6.6.1","mac","0","2023-02-27","17:52:46","296142977","1","1","experiment","2","experiment_noU","1750","1","80","CEVR","POS","1","","","","","","80","30","35","0","0","15","0","1","33","30","5","31","0","1938","1922","144","9"
"6.6.1","mac","0","2023-02-27","17:52:46","296142977","1","1","experiment","2","dispFeedback_noU","1000","1","80","CEVR","POS","1","118","0.3011627906976743763","35.4941860465116221235","118","0.5967654815401801649","80","30","35","0","0","15","0","1","33","31","5","31","2","2000","2040","152","8"
"6.6.1","mac","0","2023-02-27","17:52:46","296142977","1","1","experiment","2","experiment_U","4414","1","30","CEVR","POS","1","","","","","","30","30","35","0","0","15","0","1","33","31","5","31","2","2000","2040","152","8"
"6.6.1","mac","0","2023-02-27","17:52:46","296142977","1","1","experiment","2","dispFeedback_U","1000","1","30","CEVR","POS","1","115","0.3131044487427466216","36.0606866537717607457","1","0.9749419018567869744","30","30","35","0","0","15","1","1","33","32","5","31","2","2164","2041","153","1"
"6.6.1","mac","0","2023-02-27","17:52:46","296142977","1","1","experiment","2","experiment_U","2177","1","73","CEVR","POS","1","","","","","","73","30","35","0","0","15","1","1","33","32","5","31","2","2164","2041","153","1"
"6.6.1","mac","0","2023-02-27","17:52:46","296142977","1","1","experiment","2","dispFeedback_U","1000","1","73","CEVR","POS","1","120","0.3066540374141605296","36.6933459625858304776","1","0.5875142031785832719","73","30","35","0","0","15","2","1","33","33","5","31","2","2077","2042","154","1"
"6.6.1","mac","0","2023-02-27","17:52:46","296142977","1","1","experiment","3","experiment_noU","761","1","90","DEV","POS","1","","","","","","90","5","25","0","0","0","0","2","38","0","8","27","2","2077","2042","154","1"
"6.6.1","mac","0","2023-02-27","17:52:46","296142977","1","1","experiment","3","dispFeedback_noU","1000","1","90","DEV","POS","1","75","0.5450805388955786146","40.8875823694538880204","75","0.5568547196585812431","90","5","25","0","0","0","0","2","38","1","8","27","0","1511","2117","160","6"
"6.6.1","mac","0","2023-02-27","17:52:46","296142977","1","1","experiment","3","experiment_noU","3578","1","39","DEV","POS","1","","","","","","39","5","25","0","0","0","0","2","38","1","8","27","0","1511","2117","160","6"
"6.6.1","mac","0","2023-02-27","17:52:46","296142977","1","1","experiment","3","dispFeedback_noU","1000","1","39","DEV","POS","1","76","0.5008348778199991358","38.1396129856546579617","76","0.8690461329810894586","39","5","25","0","0","0","0","2","38","2","8","27","0","1778","2193","166","6"
"6.6.1","mac","0","2023-02-27","17:52:46","296142977","1","1","experiment","3","experiment_noU","3227","1","39","DEV","POS","1","","","","","","39","5","25","0","0","0","0","2","38","2","8","27","0","1778","2193","166","6"
"6.6.1","mac","0","2023-02-27","17:52:46","296142977","1","1","experiment","3","dispFeedback_noU","1000","1","39","DEV","POS","1","75","0.5601834606295296171","41.803510455553542613","75","0.6928285268817163667","39","5","25","0","0","0","0","2","38","3","8","27","0","1427","2268","172","6"
"6.6.1","mac","0","2023-02-27","17:52:46","296142977","1","1","experiment","3","experiment_noU","2578","1","59","DEV","POS","1","","","","","","59","5","25","0","0","0","0","2","38","3","8","27","0","1427","2268","172","6"
"6.6.1","mac","0","2023-02-27","17:52:46","296142977","1","1","experiment","3","dispFeedback_noU","1000","1","59","DEV","POS","1","79","0.5008348778199991358","39.6421176191146571455","79","0.0701326164580259037","59","5","25","0","0","0","0","2","38","4","8","27","0","1778","2347","178","6"
"6.6.1","mac","0","2023-02-27","17:52:46","296142977","1","1","experiment","3","experiment_noU","5349","1","2","DEV","POS","1","","","","","","2","5","25","0","0","0","0","2","38","4","8","27","0","1778","2347","178","6"
"6.6.1","mac","0","2023-02-27","17:52:46","296142977","1","1","experiment","3","dispFeedback_noU","1000","1","2","DEV","POS","1","80","0.5133395164101074437","40.9789041990122271386","80","0.9915755640230085044","2","5","25","0","0","0","0","2","38","5","8","27","0","1699","2427","184","6"
"6.6.1","mac","0","2023-02-27","17:52:46","296142977","1","1","experiment","3","experiment_noU","621","1","90","DEV","POS","1","","","","","","90","5","25","0","0","0","0","2","38","5","8","27","0","1699","2427","184","6"
"6.6.1","mac","0","2023-02-27","17:52:46","296142977","1","1","experiment","3","dispFeedback_noU","1000","1","90","DEV","POS","1","75","0.5705720050064508886","42.9970901880774789561","75","0.4005762244110405712","90","5","25","0","0","0","0","2","38","6","8","27","0","1371","2502","190","6"
"6.6.1","mac","0","2023-02-27","17:52:46","296142977","1","1","experiment","3","experiment_noU","2902","1","39","DEV","POS","1","","","","","","39","5","25","0","0","0","0","2","38","6","8","27","0","1371","2502","190","6"
"6.6.1","mac","0","2023-02-27","17:52:46","296142977","1","1","experiment","3","dispFeedback_noU","1000","1","39","DEV","POS","1","77","0.6240585616655922596","48.0316185020327282018","77","0.8502196364221674685","39","5","25","0","0","0","0","2","38","7","8","27","0","1102","2579","196","6"
"6.6.1","mac","0","2023-02-27","17:52:46","296142977","1","1","experiment","3","experiment_noU","4000","1","27","DEV","POS","1","","","","","","27","5","25","0","0","0","0","2","38","7","8","27","0","1102","2579","196","6"
"6.6.1","mac","0","2023-02-27","17:52:46","296142977","1","1","experiment","3","dispFeedback_noU","1000","1","27","DEV","POS","1","79","0.5297020982193046956","42.0618659495090341238","79","0.63071647883176718","27","5","25","0","0","0","0","2","38","8","8","27","1","1600","2658","202","6"
"6.6.1","mac","0","2023-02-27","17:52:46","296142977","1","1","experiment","3","experiment_U","2337","1","62","DEV","POS","1","","","","","","62","5","25","0","0","0","0","2","38","8","8","27","1","1600","2658","202","6"
"6.6.1","mac","0","2023-02-27","17:52:46","296142977","1","1","experiment","3","dispFeedback_U","1000","1","62","DEV","POS","1","80","0.515281579858480332","41.1080958828320817133","80","0.0031934294391408164","62","5","25","1","0","1","0","2","38","9","8","27","1","1687","2738","208","6"
"6.6.1","mac","0","2023-02-27","17:52:46","296142977","1","1","experiment","3","experiment_U","3775","1","41","DEV","POS","1","","","","","","41","5","25","1","0","1","0","2","38","9","8","27","1","1687","2738","208","6"
"6.6.1","mac","0","2023-02-27","17:52:46","296142977","1","1","experiment","3","dispFeedback_U","1000","1","41","DEV","POS","1","76","0.4580266038219930058","34.9401290474669607988","76","0.0602098598750796798","41","5","25","2","0","2","0","2","38","10","8","27","1","2075","2814","214","6"
"6.6.1","mac","0","2023-02-27","17:52:46","296142977","1","1","experiment","3","experiment_U","2349","1","76","DEV","POS","1","","","","","","76","5","25","2","0","2","0","2","38","10","8","27","1","2075","2814","214","6"
"6.6.1","mac","0","2023-02-27","17:52:46","296142977","1","1","experiment","3","dispFeedback_U","1000","1","76","DEV","POS","1","81","0.4182447287462096597","34.040247355811594332","1","0.4204829436308897272","76","5","25","3","0","3","0","2","38","11","8","27","1","2399","2815","215","1"
"6.6.1","mac","0","2023-02-27","17:52:46","296142977","1","1","experiment","3","experiment_U","3828","1","40","DEV","POS","1","","","","","","40","5","25","3","0","3","0","2","38","11","8","27","1","2399","2815","215","1"
"6.6.1","mac","0","2023-02-27","17:52:46","296142977","1","1","experiment","3","dispFeedback_U","1000","1","40","DEV","POS","1","80","0.4576266371036246117","36.7450691533319329096","1","0.6782682800382069388","40","5","25","4","0","4","0","2","38","12","8","27","0","2078","2816","216","1"
"6.6.1","mac","0","2023-02-27","17:52:46","296142977","1","1","experiment","3","experiment_noU","915","1","35","DEV","POS","1","","","","","","35","5","25","4","0","4","0","2","38","12","8","27","0","2078","2816","216","1"
"6.6.1","mac","0","2023-02-27","17:52:46","296142977","1","1","experiment","3","dispFeedback_noU","1000","1","35","DEV","POS","1","80","0.287040382757960566","23.0696283010821296955","80","0.2784256248917490462","35","5","25","4","0","4","0","2","38","13","8","27","0","3915","2896","222","6"
"6.6.1","mac","0","2023-02-27","17:52:46","296142977","1","1","experiment","3","experiment_noU","873","1","28","DEV","POS","1","","","","","","28","5","25","4","0","4","0","2","38","13","8","27","0","3915","2896","222","6"
"6.6.1","mac","0","2023-02-27","17:52:46","296142977","1","1","experiment","3","dispFeedback_noU","1000","1","28","DEV","POS","1","85","0.3173279350793587472","27.1261472219889192559","85","0.8429073125223879304","28","5","25","4","0","4","0","2","38","14","8","27","0","3523","2981","228","6"
"6.6.1","mac","0","2023-02-27","17:52:46","296142977","1","1","experiment","3","experiment_noU","750","1","88","DEV","POS","1","","","","","","88","5","25","4","0","4","0","2","38","14","8","27","0","3523","2981","228","6"
"6.6.1","mac","0","2023-02-27","17:52:46","296142977","1","1","experiment","3","dispFeedback_noU","1000","1","88","DEV","POS","1","73","0.5651601825142368307","41.5375362464033983656","73","0.6823409611085292648","88","5","25","4","0","4","0","2","38","15","8","27","0","1400","3054","233","5"
"6.6.1","mac","0","2023-02-27","17:52:46","296142977","1","1","experiment","3","experiment_noU","4253","1","20","DEV","POS","1","","","","","","20","5","25","4","0","4","0","2","38","15","8","27","0","1400","3054","233","5"
"6.6.1","mac","0","2023-02-27","17:52:46","296142977","1","1","experiment","3","dispFeedback_noU","1000","1","20","DEV","POS","1","74","0.5464941979912119052","40.4273200623030746215","74","0.5763158173245181981","20","5","25","4","0","4","0","2","38","16","8","27","0","1503","3128","238","5"
"6.6.1","mac","0","2023-02-27","17:52:46","296142977","1","1","experiment","3","experiment_noU","1822","1","74","DEV","POS","1","","","","","","74","5","25","4","0","4","0","2","38","16","8","27","0","1503","3128","238","5"
"6.6.1","mac","0","2023-02-27","17:52:46","296142977","1","1","experiment","3","dispFeedback_noU","1000","1","74","DEV","POS","1","78","0.5017676169324718494","39.2020141648863358341","78","0.1038956640064473413","74","5","25","4","0","4","0","2","38","17","8","27","0","1772","3206","244","6"
"6.6.1","mac","0","2023-02-27","17:52:46","296142977","1","1","experiment","3","experiment_noU","1301","1","91","DEV","POS","1","","","","","","91","5","25","4","0","4","0","2","38","17","8","27","0","1772","3206","244","6"
"6.6.1","mac","0","2023-02-27","17:52:46","296142977","1","1","experiment","3","dispFeedback_noU","1000","1","91","DEV","POS","1","76","0.4545808567278251111","34.7196665385507259316","76","0.4740519904238292836","91","5","25","4","0","4","0","2","38","18","8","27","0","2101","3282","250","6"
"6.6.1","mac","0","2023-02-27","17:52:46","296142977","1","1","experiment","3","experiment_noU","4391","1","21","DEV","POS","1","","","","","","21","5","25","4","0","4","0","2","38","18","8","27","0","2101","3282","250","6"
"6.6.1","mac","0","2023-02-27","17:52:46","296142977","1","1","experiment","3","dispFeedback_noU","1000","1","21","DEV","POS","1","79","0.5146329679612133834","40.5503347141541894416","79","0.203387625562815838","21","5","25","4","0","4","0","2","38","19","8","27","0","1691","3361","256","6"
"6.6.1","mac","0","2023-02-27","17:52:46","296142977","1","1","experiment","3","experiment_noU","1487","1","82","DEV","POS","1","","","","","","82","5","25","4","0","4","0","2","38","19","8","27","0","1691","3361","256","6"
"6.6.1","mac","0","2023-02-27","17:52:46","296142977","1","1","experiment","3","dispFeedback_noU","1000","1","82","DEV","POS","1","81","0.4918098348031173517","40.0271117469244970266","81","0.3017494374191736495","82","5","25","4","0","4","0","2","38","20","8","27","0","1837","3442","262","6"
"6.6.1","mac","0","2023-02-27","17:52:46","296142977","1","1","experiment","3","experiment_noU","4891","1","28","DEV","POS","1","","","","","","28","5","25","4","0","4","0","2","38","20","8","27","0","1837","3442","262","6"
"6.6.1","mac","0","2023-02-27","17:52:46","296142977","1","1","experiment","3","dispFeedback_noU","1000","1","28","DEV","POS","1","85","0.4027945438479441087","34.1716277741084795139","85","0.2356598210138408089","28","5","25","4","0","4","0","2","38","21","8","27","0","2541","3527","268","6"
"6.6.1","mac","0","2023-02-27","17:52:46","296142977","1","1","experiment","3","experiment_noU","1578","1","67","DEV","POS","1","","","","","","67","5","25","4","0","4","0","2","38","21","8","27","0","2541","3527","268","6"
"6.6.1","mac","0","2023-02-27","17:52:46","296142977","1","1","experiment","3","dispFeedback_noU","1000","1","67","DEV","POS","1","70","0.6083462530795687995","42.8151821338390590199","70","0.9559658027617181641","67","5","25","4","0","4","0","2","38","22","8","27","0","1178","3597","273","5"
"6.6.1","mac","0","2023-02-27","17:52:46","296142977","1","1","experiment","3","experiment_noU","723","1","97","DEV","POS","1","","","","","","97","5","25","4","0","4","0","2","38","22","8","27","0","1178","3597","273","5"
"6.6.1","mac","0","2023-02-27","17:52:46","296142977","1","1","experiment","3","dispFeedback_noU","1000","1","97","DEV","POS","1","82","0.4939273541653064203","40.66604642655631352","82","0.9870383576459805797","97","5","25","4","0","4","0","2","38","23","8","27","0","1823","3679","279","6"
"6.6.1","mac","0","2023-02-27","17:52:46","296142977","1","1","experiment","3","experiment_noU","2540","1","70","DEV","POS","1","","","","","","70","5","25","4","0","4","0","2","38","23","8","27","0","1823","3679","279","6"
"6.6.1","mac","0","2023-02-27","17:52:46","296142977","1","1","experiment","3","dispFeedback_noU","1000","1","70","DEV","POS","1","76","0.4308877285504028043","32.7605175216211605971","76","0.1377841851529162942","70","5","25","4","0","4","0","2","38","24","8","27","0","2290","3755","285","6"
"6.6.1","mac","0","2023-02-27","17:52:46","296142977","1","1","experiment","3","experiment_noU","850","1","18","DEV","POS","1","","","","","","18","5","25","4","0","4","0","2","38","24","8","27","0","2290","3755","285","6"
"6.6.1","mac","0","2023-02-27","17:52:46","296142977","1","1","experiment","3","dispFeedback_noU","1000","1","18","DEV","POS","1","79","0.3593397677223568731","28.4456525863224989337","79","0.5729775108799751715","18","5","25","4","0","4","0","2","38","25","8","27","0","3000","3834","291","6"
"6.6.1","mac","0","2023-02-27","17:52:46","296142977","1","1","experiment","3","experiment_noU","1226","1","86","DEV","POS","1","","","","","","86","5","25","4","0","4","0","2","38","25","8","27","0","3000","3834","291","6"
"6.6.1","mac","0","2023-02-27","17:52:46","296142977","1","1","experiment","3","dispFeedback_noU","1000","1","86","DEV","POS","1","83","0.501145482730623204","41.6672381809826646304","83","0.8476377874258061995","86","5","25","4","0","4","0","2","38","26","8","27","0","1776","3917","297","6"
"6.6.1","mac","0","2023-02-27","17:52:46","296142977","1","1","experiment","3","experiment_noU","1709","1","72","DEV","POS","1","","","","","","72","5","25","4","0","4","0","2","38","26","8","27","0","1776","3917","297","6"
"6.6.1","mac","0","2023-02-27","17:52:46","296142977","1","1","experiment","3","dispFeedback_noU","1000","1","72","DEV","POS","1","79","0.5367073025919980589","42.5215887916981216677","79","0.6904718928715382065","72","5","25","4","0","4","0","2","38","27","8","27","2","1559","3996","303","6"
"6.6.1","mac","0","2023-02-27","17:52:46","296142977","1","1","experiment","3","experiment_U","2237","1","63","DEV","POS","1","","","","","","63","5","25","4","0","4","0","2","38","27","8","27","2","1559","3996","303","6"
"6.6.1","mac","0","2023-02-27","17:52:46","296142977","1","1","experiment","3","dispFeedback_U","1000","1","63","DEV","POS","1","80","0.5234957855049191533","41.6525878248118885949","1","0.9410378404290037357","63","5","25","4","0","4","1","2","38","28","8","27","2","1637","3997","304","1"
"6.6.1","mac","0","2023-02-27","17:52:46","296142977","1","1","experiment","3","experiment_U","3761","1","38","DEV","POS","1","","","","","","38","5","25","4","0","4","1","2","38","28","8","27","2","1637","3997","304","1"
"6.6.1","mac","0","2023-02-27","17:52:46","296142977","1","1","experiment","3","dispFeedback_U","1000","1","38","DEV","POS","1","79","0.4808622018508101892","37.831778761807420608","1","0.5304493719084303338","38","5","25","4","0","4","2","2","38","29","8","27","2","1911","3998","305","1"
"6.6.1","mac","0","2023-02-27","17:52:46","296142977","1","1","experiment","3","experiment_U","5333","1","44","DEV","POS","1","","","","","","44","5","25","4","0","4","2","2","38","29","8","27","2","1911","3998","305","1"
"6.6.1","mac","0","2023-02-27","17:52:46","296142977","1","1","experiment","3","dispFeedback_U","1000","1","44","DEV","POS","1","88","0.2973391138214812601","26.1897711074447556712","88","0.2680727588636970249","44","5","25","4","0","4","3","2","38","30","8","27","2","3783","4086","311","6"
"6.6.1","mac","0","2023-02-27","17:52:46","296142977","1","1","experiment","3","experiment_U","2740","1","61","DEV","POS","1","","","","","","61","5","25","4","0","4","3","2","38","30","8","27","2","3783","4086","311","6"
"6.6.1","mac","0","2023-02-27","17:52:46","296142977","1","1","experiment","3","dispFeedback_U","1000","1","61","DEV","POS","1","79","0.4627391849566420134","36.6291067423261296199","79","0.0476824676263338104","61","5","25","4","0","4","4","2","38","31","8","27","2","2040","4165","317","6"
"6.6.1","mac","0","2023-02-27","17:52:46","296142977","1","1","experiment","3","experiment_U","3512","1","38","DEV","POS","1","","","","","","38","5","25","4","0","4","4","2","38","31","8","27","2","2040","4165","317","6"
"6.6.1","mac","0","2023-02-27","17:52:46","296142977","1","1","experiment","3","dispFeedback_U","1000","1","38","DEV","POS","1","75","0.5193639677552147615","38.7822785763153845551","75","0.4033782469116566349","38","5","25","4","0","4","5","2","38","32","8","27","2","1662","4240","323","6"
"6.6.1","mac","0","2023-02-27","17:52:46","296142977","1","1","experiment","3","experiment_U","2924","1","51","DEV","POS","1","","","","","","51","5","25","4","0","4","5","2","38","32","8","27","2","1662","4240","323","6"
"6.6.1","mac","0","2023-02-27","17:52:46","296142977","1","1","experiment","3","dispFeedback_U","1000","1","51","DEV","POS","1","76","0.5093298092844061875","38.6743004211712317897","1","0.5527156383154717689","51","5","25","4","0","4","6","2","38","33","8","27","2","1724","4241","324","1"
"6.6.1","mac","0","2023-02-27","17:52:46","296142977","1","1","experiment","3","experiment_U","1464","1","7","DEV","POS","1","","","","","","7","5","25","4","0","4","6","2","38","33","8","27","2","1724","4241","324","1"
"6.6.1","mac","0","2023-02-27","17:52:46","296142977","1","1","experiment","3","dispFeedback_U","1000","1","7","DEV","POS","1","80","0.3538953497537443704","28.429253949669870849","1","0.662053696034022976","7","5","25","4","0","4","7","2","38","34","8","27","2","3064","4242","325","1"
"6.6.1","mac","0","2023-02-27","17:52:46","296142977","1","1","experiment","3","experiment_U","957","1","21","DEV","POS","1","","","","","","21","5","25","4","0","4","7","2","38","34","8","27","2","3064","4242","325","1"
"6.6.1","mac","0","2023-02-27","17:52:46","296142977","1","1","experiment","3","dispFeedback_U","1000","1","21","DEV","POS","1","81","0.3380989098504408874","27.3293511939031859015","1","0.9984268986150685032","21","5","25","4","0","4","8","2","38","35","8","27","2","3257","4243","326","1"
"6.6.1","mac","0","2023-02-27","17:52:46","296142977","1","1","experiment","3","experiment_U","5299","1","7","DEV","POS","1","","","","","","7","5","25","4","0","4","8","2","38","35","8","27","2","3257","4243","326","1"
"6.6.1","mac","0","2023-02-27","17:52:46","296142977","1","1","experiment","3","dispFeedback_U","1000","1","7","DEV","POS","1","79","0.4826097300806996282","37.9470337639471182456","1","0.9848575778270274306","7","5","25","4","0","4","9","2","38","36","8","27","2","1899","4244","327","1"
"6.6.1","mac","0","2023-02-27","17:52:46","296142977","1","1","experiment","3","experiment_U","4550","1","22","DEV","POS","1","","","","","","22","5","25","4","0","4","9","2","38","36","8","27","2","1899","4244","327","1"
"6.6.1","mac","0","2023-02-27","17:52:46","296142977","1","1","experiment","3","dispFeedback_U","1000","1","22","DEV","POS","1","80","0.4824636950747033248","38.4198708853108712447","1","0.5516032612769872223","22","5","25","4","0","4","10","2","38","37","8","27","2","1900","4245","328","1"
"6.6.1","mac","0","2023-02-27","17:52:46","296142977","1","1","experiment","3","experiment_U","6500","1","94","DEV","POS","1","","","","","","94","5","25","4","0","4","10","2","38","37","8","27","2","1900","4245","328","1"
"6.6.1","mac","0","2023-02-27","17:52:46","296142977","1","1","experiment","3","dispFeedback_U","1000","1","94","DEV","POS","1","80","0.4125678479497119078","32.8204230551735562926","80","0.0916094202761560256","94","5","25","4","1","4","11","2","38","38","8","27","2","2450","4325","328","0"
"6.6.1","mac","0","2023-02-27","17:52:46","296142977","1","1","experiment","4","experiment_noU","2437","1","57","IEV","POS","1","","","","","","57","35","50","0","0","0","0","3","40","0","10","26","2","2450","4325","328","0"
"6.6.1","mac","0","2023-02-27","17:52:46","296142977","1","1","experiment","4","dispFeedback_noU","1000","1","57","IEV","POS","1","37","0.8203352082792895184","30.0456602895152791177","37","0.2985598364143073336","57","35","50","0","0","0","0","3","40","1","10","26","0","1537","4362","331","3"
"6.6.1","mac","0","2023-02-27","17:52:46","296142977","1","1","experiment","4","experiment_noU","1606","1","82","IEV","POS","1","","","","","","82","35","50","0","0","0","0","3","40","1","10","26","0","1537","4362","331","3"
"6.6.1","mac","0","2023-02-27","17:52:46","296142977","1","1","experiment","4","dispFeedback_noU","1000","1","82","IEV","POS","1","41","0.7667394408142036433","31.7423767912786978229","41","0.9190305867043860877","82","35","50","0","0","0","0","3","40","2","10","26","0","1956","4403","334","3"
"6.6.1","mac","0","2023-02-27","17:52:46","296142977","1","1","experiment","4","experiment_noU","2867","1","66","IEV","POS","1","","","","","","66","35","50","0","0","0","0","3","40","2","10","26","0","1956","4403","334","3"
"6.6.1","mac","0","2023-02-27","17:52:46","296142977","1","1","experiment","4","dispFeedback_noU","1000","1","66","IEV","POS","1","55","0.6932043200289454976","38.0955605088059741092","55","0.7831599763089698296","66","35","50","0","0","0","0","3","40","3","10","26","0","2417","4458","338","4"
"6.6.1","mac","0","2023-02-27","17:52:46","296142977","1","1","experiment","4","experiment_noU","980","1","14","IEV","POS","1","","","","","","14","35","50","0","0","0","0","3","40","3","10","26","0","2417","4458","338","4"
"6.6.1","mac","0","2023-02-27","17:52:46","296142977","1","1","experiment","4","dispFeedback_noU","1000","1","14","IEV","POS","1","75","0.597419599851333305","44.6507343730269852244","75","0.4240015271175656131","14","35","50","0","0","0","0","3","40","4","10","26","0","2930","4533","344","6"
"6.6.1","mac","0","2023-02-27","17:52:46","296142977","1","1","experiment","4","experiment_noU","2074","1","14","IEV","POS","1","","","","","","14","35","50","0","0","0","0","3","40","4","10","26","0","2930","4533","344","6"
"6.6.1","mac","0","2023-02-27","17:52:46","296142977","1","1","experiment","4","dispFeedback_noU","1000","1","14","IEV","POS","1","142","0.3719243461672246953","52.8088518465589302764","142","0.5666927154098387875","14","35","50","0","0","0","0","3","40","5","10","26","0","4024","4675","354","10"
"6.6.1","mac","0","2023-02-27","17:52:46","296142977","1","1","experiment","4","experiment_noU","6163","1","21","IEV","POS","1","","","","","","21","35","50","0","0","0","0","3","40","5","10","26","0","4024","4675","354","10"
"6.6.1","mac","0","2023-02-27","17:52:46","296142977","1","1","experiment","4","dispFeedback_noU","1000","1","21","IEV","POS","1","98","0.4886187247298644509","48.0054839055409132698","98","0.1643145173239322632","21","35","50","0","0","0","0","3","40","6","10","26","0","3463","4773","361","7"
"6.6.1","mac","0","2023-02-27","17:52:46","296142977","1","1","experiment","4","experiment_noU","1789","1","16","IEV","POS","1","","","","","","16","35","50","0","0","0","0","3","40","6","10","26","0","3463","4773","361","7"
"6.6.1","mac","0","2023-02-27","17:52:46","296142977","1","1","experiment","4","dispFeedback_noU","1000","1","16","IEV","POS","1","128","0.4101502973177636457","52.6136385108061332971","128","0.3562919074567714728","16","35","50","0","0","0","0","3","40","7","10","26","0","3839","4901","370","9"
"6.6.1","mac","0","2023-02-27","17:52:46","296142977","1","1","experiment","4","experiment_noU","1362","1","51","IEV","POS","1","","","","","","51","35","50","0","0","0","0","3","40","7","10","26","0","3839","4901","370","9"
"6.6.1","mac","0","2023-02-27","17:52:46","296142977","1","1","experiment","4","dispFeedback_noU","1000","1","51","IEV","POS","1","12","0.8991319289864626585","10.6095387154667104568","12","0.3942881911979728149","51","35","50","0","0","0","0","3","40","8","10","26","0","162","4913","371","1"
"6.6.1","mac","0","2023-02-27","17:52:46","296142977","1","1","experiment","4","experiment_noU","831","1","45","IEV","POS","1","","","","","","45","35","50","0","0","0","0","3","40","8","10","26","0","162","4913","371","1"
"6.6.1","mac","0","2023-02-27","17:52:46","296142977","1","1","experiment","4","dispFeedback_noU","1000","1","45","IEV","POS","1","182","0.3099821687364403555","56.3683863055604632564","182","0.6779822317599277781","45","35","50","0","0","0","0","3","40","9","10","26","0","4331","5095","381","10"
"6.6.1","mac","0","2023-02-27","17:52:46","296142977","1","1","experiment","4","experiment_noU","1384","1","64","IEV","POS","1","","","","","","64","35","50","0","0","0","0","3","40","9","10","26","0","4331","5095","381","10"
"6.6.1","mac","0","2023-02-27","17:52:46","296142977","1","1","experiment","4","dispFeedback_noU","1000","1","64","IEV","POS","1","21","0.8785350930586218743","18.8105914163866039246","21","0.979210936925190234","64","35","50","0","0","0","0","3","40","10","10","26","1","834","5116","382","1"
"6.6.1","mac","0","2023-02-27","17:52:46","296142977","1","1","experiment","4","experiment_U","4600","1","96","IEV","POS","1","","","","","","96","35","50","0","0","0","0","3","40","10","10","26","1","834","5116","382","1"
"6.6.1","mac","0","2023-02-27","17:52:46","296142977","1","1","experiment","4","dispFeedback_U","1000","1","96","IEV","POS","1","21","0.8872816279316610988","18.280501198396098772","1","0.9903264162108130764","96","35","50","0","0","1","0","3","40","11","10","26","1","650","5117","383","1"
"6.6.1","mac","0","2023-02-27","17:52:46","296142977","1","1","experiment","4","experiment_U","729","1","25","IEV","POS","1","","","","","","25","35","50","0","0","1","0","3","40","11","10","26","1","650","5117","383","1"
"6.6.1","mac","0","2023-02-27","17:52:46","296142977","1","1","experiment","4","dispFeedback_U","1000","1","25","IEV","POS","1","81","0.537087086132010727","43.4574867000122111449","1","0.7088400949046108623","25","35","50","0","0","2","0","3","40","12","10","26","1","3229","5118","384","1"
"6.6.1","mac","0","2023-02-27","17:52:46","296142977","1","1","experiment","4","experiment_U","4733","1","60","IEV","POS","1","","","","","","60","35","50","0","0","2","0","3","40","12","10","26","1","3229","5118","384","1"
"6.6.1","mac","0","2023-02-27","17:52:46","296142977","1","1","experiment","4","dispFeedback_U","1000","1","60","IEV","POS","1","142","0.3803515210467851015","54.0281776506384474601","142","0.0492977358049940667","60","35","50","0","0","3","0","3","40","13","10","26","1","3983","5260","394","10"
"6.6.1","mac","0","2023-02-27","17:52:46","296142977","1","1","experiment","4","experiment_U","974","1","38","IEV","POS","1","","","","","","38","35","50","0","0","3","0","3","40","13","10","26","1","3983","5260","394","10"
"6.6.1","mac","0","2023-02-27","17:52:46","296142977","1","1","experiment","4","dispFeedback_U","1000","1","38","IEV","POS","1","157","0.3515043714272073627","55.2698033002246944534","1","0.3932580792795070668","38","35","50","0","0","4","0","3","40","14","10","26","1","4124","5261","395","1"
"6.6.1","mac","0","2023-02-27","17:52:46","296142977","1","1","experiment","4","experiment_U","2844","1","89","IEV","POS","1","","","","","","89","35","50","0","0","4","0","3","40","14","10","26","1","4124","5261","395","1"
"6.6.1","mac","0","2023-02-27","17:52:46","296142977","1","1","experiment","4","dispFeedback_U","1000","1","89","IEV","POS","1","101","0.4717149911463954792","47.8417782296199405323","1","0.4929291367281529168","89","35","50","0","0","5","0","3","40","15","10","26","1","3544","5262","396","1"
"6.6.1","mac","0","2023-02-27","17:52:46","296142977","1","1","experiment","4","experiment_U","3397","1","86","IEV","POS","1","","","","","","86","35","50","0","0","5","0","3","40","15","10","26","1","3544","5262","396","1"
"6.6.1","mac","0","2023-02-27","17:52:46","296142977","1","1","experiment","4","dispFeedback_U","1000","1","86","IEV","POS","1","134","0.3877740110014959996","51.8472175406154747179","1","0.7360752217322763524","86","35","50","0","0","6","0","3","40","16","10","26","1","3947","5263","397","1"
"6.6.1","mac","0","2023-02-27","17:52:46","296142977","1","1","experiment","4","experiment_U","4473","1","64","IEV","POS","1","","","","","","64","35","50","0","0","6","0","3","40","16","10","26","1","3947","5263","397","1"
"6.6.1","mac","0","2023-02-27","17:52:46","296142977","1","1","experiment","4","dispFeedback_U","1000","1","64","IEV","POS","1","136","0.3927332780781017108","53.2286174094132320533","1","0.4690883882504627844","64","35","50","0","0","7","0","3","40","17","10","26","1","3923","5264","398","1"
"6.6.1","mac","0","2023-02-27","17:52:46","296142977","1","1","experiment","4","experiment_U","2401","1","97","IEV","POS","1","","","","","","97","35","50","0","0","7","0","3","40","17","10","26","1","3923","5264","398","1"
"6.6.1","mac","0","2023-02-27","17:52:46","296142977","1","1","experiment","4","dispFeedback_U","1000","1","97","IEV","POS","1","105","0.4806930144225908808","50.2974656180021639784","105","0.437325108199688839","97","35","50","0","0","8","0","3","40","18","10","26","1","3501","5369","406","8"
"6.6.1","mac","0","2023-02-27","17:52:46","296142977","1","1","experiment","4","experiment_U","2876","1","81","IEV","POS","1","","","","","","81","35","50","0","0","8","0","3","40","18","10","26","1","3501","5369","406","8"
"6.6.1","mac","0","2023-02-27","17:52:46","296142977","1","1","experiment","4","dispFeedback_U","1000","1","81","IEV","POS","1","84","0.5479434116518316911","46.1299697762454385952","1","0.8109244340590491262","81","35","50","0","0","9","0","3","40","19","10","26","1","3176","5370","407","1"
"6.6.1","mac","0","2023-02-27","17:52:46","296142977","1","1","experiment","4","experiment_U","1177","1","32","IEV","POS","1","","","","","","32","35","50","0","0","9","0","3","40","19","10","26","1","3176","5370","407","1"
"6.6.1","mac","0","2023-02-27","17:52:46","296142977","1","1","experiment","4","dispFeedback_U","1000","1","32","IEV","POS","1","139","0.3713088927153397334","51.7167166995133769092","1","0.668853439313558229","32","35","50","0","0","10","0","3","40","20","10","26","1","4027","5371","408","1"
"6.6.1","mac","0","2023-02-27","17:52:46","296142977","1","1","experiment","4","experiment_U","3198","1","83","IEV","POS","1","","","","","","83","35","50","0","0","10","0","3","40","20","10","26","1","4027","5371","408","1"
"6.6.1","mac","0","2023-02-27","17:52:46","296142977","1","1","experiment","4","dispFeedback_U","1000","1","83","IEV","POS","1","106","0.4604317667233492894","48.8291543460202746019","1","0.8604390038783752415","83","35","50","0","0","11","0","3","40","21","10","26","1","3598","5372","409","1"
"6.6.1","mac","0","2023-02-27","17:52:46","296142977","1","1","experiment","4","experiment_U","2619","1","90","IEV","POS","1","","","","","","90","35","50","0","0","11","0","3","40","21","10","26","1","3598","5372","409","1"
"6.6.1","mac","0","2023-02-27","17:52:46","296142977","1","1","experiment","4","dispFeedback_U","1000","1","90","IEV","POS","1","96","0.5081729983734665224","48.5914845616784774052","1","0.8854257862282510771","90","35","50","0","0","12","0","3","40","22","10","26","1","3369","5373","410","1"
"6.6.1","mac","0","2023-02-27","17:52:46","296142977","1","1","experiment","4","experiment_U","6500","1","91","IEV","POS","1","","","","","","91","35","50","0","0","12","0","3","40","22","10","26","1","3369","5373","410","1"
"6.6.1","mac","0","2023-02-27","17:52:46","296142977","1","1","experiment","4","dispFeedback_U","1000","1","91","IEV","POS","1","53","0.713159243044925395","38.1086086056486408324","1","0.7507561798558468613","91","35","50","0","0","13","0","3","40","23","10","26","1","2300","5374","410","0"
"6.6.1","mac","0","2023-02-27","17:52:46","296142977","1","1","experiment","4","experiment_U","953","1","42","IEV","POS","1","","","","","","42","35","50","0","0","13","0","3","40","23","10","26","1","2300","5374","410","0"
"6.6.1","mac","0","2023-02-27","17:52:46","296142977","1","1","experiment","4","dispFeedback_U","1000","1","42","IEV","POS","1","172","0.3155312048491148991","54.3379927556416504331","1","0.6613668689181485538","42","35","50","0","0","14","0","3","40","24","10","26","1","4303","5375","411","1"
"6.6.1","mac","0","2023-02-27","17:52:46","296142977","1","1","experiment","4","experiment_U","3205","1","87","IEV","POS","1","","","","","","87","35","50","0","0","14","0","3","40","24","10","26","1","4303","5375","411","1"
"6.6.1","mac","0","2023-02-27","17:52:46","296142977","1","1","experiment","4","dispFeedback_U","1000","1","87","IEV","POS","1","120","0.417222241240283731","50.2693549964805512786","1","0.5863321562265819686","87","35","50","0","0","15","0","3","40","25","10","26","1","3805","5376","412","1"
"6.6.1","mac","0","2023-02-27","17:52:46","296142977","1","1","experiment","4","experiment_U","4834","1","61","IEV","POS","1","","","","","","61","35","50","0","0","15","0","3","40","25","10","26","1","3805","5376","412","1"
"6.6.1","mac","0","2023-02-27","17:52:46","296142977","1","1","experiment","4","dispFeedback_U","1000","1","61","IEV","POS","1","155","0.3494739406704732709","54.2789687401036147207","155","0.2499186392524090083","61","35","50","0","0","16","0","3","40","26","10","26","1","4134","5531","422","10"
"6.6.1","mac","0","2023-02-27","17:52:46","296142977","1","1","experiment","4","experiment_U","4535","1","71","IEV","POS","1","","","","","","71","35","50","0","0","16","0","3","40","26","10","26","1","4134","5531","422","10"
"6.6.1","mac","0","2023-02-27","17:52:46","296142977","1","1","experiment","4","dispFeedback_U","1000","1","71","IEV","POS","1","178","0.3091913294219315045","55.1509346660036001708","1","0.7770753299764067146","71","35","50","0","0","17","0","3","40","27","10","26","1","4335","5532","423","1"
"6.6.1","mac","0","2023-02-27","17:52:46","296142977","1","1","experiment","4","experiment_U","4888","1","57","IEV","POS","1","","","","","","57","35","50","0","0","17","0","3","40","27","10","26","1","4335","5532","423","1"
"6.6.1","mac","0","2023-02-27","17:52:46","296142977","1","1","experiment","4","dispFeedback_U","1000","1","57","IEV","POS","1","143","0.3793222708033819335","54.0613247183801561846","1","0.8900002795015462542","57","35","50","0","0","18","0","3","40","28","10","26","1","3988","5533","424","1"
"6.6.1","mac","0","2023-02-27","17:52:46","296142977","1","1","experiment","4","experiment_U","4066","1","61","IEV","POS","1","","","","","","61","35","50","0","0","18","0","3","40","28","10","26","1","3988","5533","424","1"
"6.6.1","mac","0","2023-02-27","17:52:46","296142977","1","1","experiment","4","dispFeedback_U","1000","1","61","IEV","POS","1","96","0.5087955417742254793","49.0716173835062647868","96","0.3476122564979857166","61","35","50","0","0","19","0","3","40","29","10","26","1","3366","5629","431","7"
"6.6.1","mac","0","2023-02-27","17:52:46","296142977","1","1","experiment","4","experiment_U","3172","1","93","IEV","POS","1","","","","","","93","35","50","0","0","19","0","3","40","29","10","26","1","3366","5629","431","7"
"6.6.1","mac","0","2023-02-27","17:52:46","296142977","1","1","experiment","4","dispFeedback_U","1000","1","93","IEV","POS","1","147","0.3620975281312877048","53.1524061731924817309","147","0.2191718856848710872","93","35","50","0","0","20","0","3","40","30","10","26","2","4072","5776","441","10"
"6.6.1","mac","0","2023-02-27","17:52:46","296142977","1","1","experiment","4","experiment_U","2055","1","18","IEV","POS","1","","","","","","18","35","50","0","0","20","0","3","40","30","10","26","2","4072","5776","441","10"
"6.6.1","mac","0","2023-02-27","17:52:46","296142977","1","1","experiment","4","dispFeedback_U","1000","1","18","IEV","POS","1","158","0.3351250515728848023","53.0420067508042407667","158","0.1006776341471536107","18","35","50","0","0","20","1","3","40","31","10","26","2","4205","5934","451","10"
"6.6.1","mac","0","2023-02-27","17:52:46","296142977","1","1","experiment","4","experiment_U","2777","1","4","IEV","POS","1","","","","","","4","35","50","0","0","20","1","3","40","31","10","26","2","4205","5934","451","10"
"6.6.1","mac","0","2023-02-27","17:52:46","296142977","1","1","experiment","4","dispFeedback_U","1000","1","4","IEV","POS","1","162","0.3307041258064446487","53.5259662114005223543","162","0.1211767292397973872","4","35","50","0","0","20","2","3","40","32","10","26","2","4227","6096","461","10"
"6.6.1","mac","0","2023-02-27","17:52:46","296142977","1","1","experiment","4","experiment_U","6500","1","69","IEV","POS","1","","","","","","69","35","50","0","0","20","2","3","40","32","10","26","2","4227","6096","461","10"
"6.6.1","mac","0","2023-02-27","17:52:46","296142977","1","1","experiment","4","dispFeedback_U","1000","1","69","IEV","POS","1","30","0.8532567942941541306","25.6595954925221469978","30","0.3720393493706452004","69","35","50","0","0","20","3","3","40","33","10","26","2","1200","6126","461","0"
"6.6.1","mac","0","2023-02-27","17:52:46","296142977","1","1","experiment","4","experiment_U","3587","1","90","IEV","POS","1","","","","","","90","35","50","0","0","20","3","3","40","33","10","26","2","1200","6126","461","0"
"6.6.1","mac","0","2023-02-27","17:52:46","296142977","1","1","experiment","4","dispFeedback_U","1000","1","90","IEV","POS","1","177","0.3087960882920018357","54.5445534349330642954","1","0.6030729745056184754","90","35","50","0","0","20","4","3","40","34","10","26","2","4337","6127","462","1"
"6.6.1","mac","0","2023-02-27","17:52:46","296142977","1","1","experiment","4","experiment_U","2731","1","87","IEV","POS","1","","","","","","87","35","50","0","0","20","4","3","40","34","10","26","2","4337","6127","462","1"
"6.6.1","mac","0","2023-02-27","17:52:46","296142977","1","1","experiment","4","dispFeedback_U","1000","1","87","IEV","POS","1","89","0.5160501089447244727","46.1616218305317005388","1","0.9192389729244725416","87","35","50","0","0","20","5","3","40","35","10","26","2","3331","6128","463","1"
"6.6.1","mac","0","2023-02-27","17:52:46","296142977","1","1","experiment","4","experiment_U","4495","1","69","IEV","POS","1","","","","","","69","35","50","0","0","20","5","3","40","35","10","26","2","3331","6128","463","1"
"6.6.1","mac","0","2023-02-27","17:52:46","296142977","1","1","experiment","4","dispFeedback_U","1000","1","69","IEV","POS","1","158","0.3371386261509806692","53.3087184663551525432","158","0.1048419601528071676","69","35","50","0","0","20","6","3","40","36","10","26","2","4195","6286","473","10"
"6.6.1","mac","0","2023-02-27","17:52:46","296142977","1","1","experiment","4","experiment_U","2183","1","22","IEV","POS","1","","","","","","22","35","50","0","0","20","6","3","40","36","10","26","2","4195","6286","473","10"
"6.6.1","mac","0","2023-02-27","17:52:46","296142977","1","1","experiment","4","dispFeedback_U","1000","1","22","IEV","POS","1","204","0.2706811949438448495","55.0903456369565702744","204","0.1644408007069585731","22","35","50","0","0","20","7","3","40","37","10","26","2","4533","6490","483","10"
"6.6.1","mac","0","2023-02-27","17:52:46","296142977","1","1","experiment","4","experiment_U","4254","1","72","IEV","POS","1","","","","","","72","35","50","0","0","20","7","3","40","37","10","26","2","4533","6490","483","10"
"6.6.1","mac","0","2023-02-27","17:52:46","296142977","1","1","experiment","4","dispFeedback_U","1000","1","72","IEV","POS","1","149","0.3555718556417974408","53.0198109998679356636","149","0.3270849926227435978","72","35","50","0","0","20","8","3","40","38","10","26","2","4104","6639","493","10"
"6.6.1","mac","0","2023-02-27","17:52:46","296142977","1","1","experiment","4","experiment_U","1266","1","30","IEV","POS","1","","","","","","30","35","50","0","0","20","8","3","40","38","10","26","2","4104","6639","493","10"
"6.6.1","mac","0","2023-02-27","17:52:46","296142977","1","1","experiment","4","dispFeedback_U","1000","1","30","IEV","POS","1","138","0.373566354655022026","51.6298339788297440123","138","0.2178774539422889955","30","35","50","0","0","20","9","3","40","39","10","26","2","4016","6777","503","10"
"6.6.1","mac","0","2023-02-27","17:52:46","296142977","1","1","experiment","4","experiment_U","4894","1","57","IEV","POS","1","","","","","","57","35","50","0","0","20","9","3","40","39","10","26","2","4016","6777","503","10"
"6.6.1","mac","0","2023-02-27","17:52:46","296142977","1","1","experiment","4","dispFeedback_U","1000","1","57","IEV","POS","1","144","0.3780877237109156463","54.4790353968165774745","1","0.8372104442299368454","57","35","50","0","0","20","10","3","40","40","10","26","2","3994","6778","504","1"
"6.6.1","mac","0","2023-02-27","17:52:46","296142977","1","1","experiment","5","experiment_noU","4498","1","82","IEV","POS","1","","","","","","82","20","10","0","0","0","0","4","41","0","9","30","2","3994","6778","504","1"
"6.6.1","mac","0","2023-02-27","17:52:46","296142977","1","1","experiment","5","dispFeedback_noU","1000","1","82","IEV","POS","1","269","0.2123736322063991266","57.0302595129391818318","269","0.4806696415135333633","82","20","10","0","0","0","0","4","41","1","9","30","0","4848","7047","514","10"
"6.6.1","mac","0","2023-02-27","17:52:46","296142977","1","1","experiment","5","experiment_noU","6500","1","74","IEV","POS","1","","","","","","74","20","10","0","0","0","0","4","41","1","9","30","0","4848","7047","514","10"
"6.6.1","mac","0","2023-02-27","17:52:46","296142977","1","1","experiment","5","dispFeedback_noU","1000","1","74","IEV","POS","1","31","0.829723278929360597","25.7810725277427685853","31","0.9903227915033517847","74","20","10","0","0","0","0","4","41","2","9","30","0","1450","7078","514","0"
"6.6.1","mac","0","2023-02-27","17:52:46","296142977","1","1","experiment","5","experiment_noU","1131","1","40","IEV","POS","1","","","","","","40","20","10","0","0","0","0","4","41","2","9","30","0","1450","7078","514","0"
"6.6.1","mac","0","2023-02-27","17:52:46","296142977","1","1","experiment","5","dispFeedback_noU","1000","1","40","IEV","POS","1","185","0.3001314476754862737","55.4041519915740323654","185","0.2989961573153259722","40","20","10","0","0","0","0","4","41","3","9","30","0","4381","7263","524","10"
"6.6.1","mac","0","2023-02-27","17:52:46","296142977","1","1","experiment","5","experiment_noU","664","1","44","IEV","POS","1","","","","","","44","20","10","0","0","0","0","4","41","3","9","30","0","4381","7263","524","10"
"6.6.1","mac","0","2023-02-27","17:52:46","296142977","1","1","experiment","5","dispFeedback_noU","1000","1","44","IEV","POS","1","153","0.3535370226417552386","54.1511428615530832076","153","0.8042586114733151215","44","20","10","0","0","0","0","4","41","4","9","30","0","4114","7416","534","10"
"6.6.1","mac","0","2023-02-27","17:52:46","296142977","1","1","experiment","5","experiment_noU","664","1","47","IEV","POS","1","","","","","","47","20","10","0","0","0","0","4","41","4","9","30","0","4114","7416","534","10"
"6.6.1","mac","0","2023-02-27","17:52:46","296142977","1","1","experiment","5","dispFeedback_noU","1000","1","47","IEV","POS","1","170","0.3232975549876017096","55.064285516299861456","170","0.5110374895182990818","47","20","10","0","0","0","0","4","41","5","9","30","0","4264","7586","544","10"
"6.6.1","mac","0","2023-02-27","17:52:46","296142977","1","1","experiment","5","experiment_noU","1274","1","14","IEV","POS","1","","","","","","14","20","10","0","0","0","0","4","41","5","9","30","0","4264","7586","544","10"
"6.6.1","mac","0","2023-02-27","17:52:46","296142977","1","1","experiment","5","dispFeedback_noU","1000","1","14","IEV","POS","1","90","0.5381136625566571574","48.242886407368111179","90","0.5639386669648668304","14","20","10","0","0","0","0","4","41","6","9","30","0","3224","7676","551","7"
"6.6.1","mac","0","2023-02-27","17:52:46","296142977","1","1","experiment","5","experiment_noU","6233","1","38","IEV","POS","1","","","","","","38","20","10","0","0","0","0","4","41","6","9","30","0","3224","7676","551","7"
"6.6.1","mac","0","2023-02-27","17:52:46","296142977","1","1","experiment","5","dispFeedback_noU","1000","1","38","IEV","POS","1","186","0.2997390180483434641","55.714681379698646424","186","0.8759311451287780104","38","20","10","0","0","0","0","4","41","7","9","30","0","4383","7862","561","10"
"6.6.1","mac","0","2023-02-27","17:52:46","296142977","1","1","experiment","5","experiment_noU","3719","1","88","IEV","POS","1","","","","","","88","20","10","0","0","0","0","4","41","7","9","30","0","4383","7862","561","10"
"6.6.1","mac","0","2023-02-27","17:52:46","296142977","1","1","experiment","5","dispFeedback_noU","1000","1","88","IEV","POS","1","182","0.3024886430453385122","55.0365387182921921294","182","0.1815698061095480376","88","20","10","0","0","0","0","4","41","8","9","30","0","4369","8044","571","10"
"6.6.1","mac","0","2023-02-27","17:52:46","296142977","1","1","experiment","5","experiment_noU","4579","1","72","IEV","POS","1","","","","","","72","20","10","0","0","0","0","4","41","8","9","30","0","4369","8044","571","10"
"6.6.1","mac","0","2023-02-27","17:52:46","296142977","1","1","experiment","5","dispFeedback_noU","1000","1","72","IEV","POS","1","186","0.2907482348778835379","54.2043782540225365096","186","0.668482103773505032","72","20","10","0","0","0","0","4","41","9","9","30","1","4429","8230","581","10"
"6.6.1","mac","0","2023-02-27","17:52:46","296142977","1","1","experiment","5","experiment_U","1168","1","42","IEV","POS","1","","","","","","42","20","10","0","0","0","0","4","41","9","9","30","1","4429","8230","581","10"
"6.6.1","mac","0","2023-02-27","17:52:46","296142977","1","1","experiment","5","dispFeedback_U","1000","1","42","IEV","POS","1","206","0.2735523547877047879","56.3752912653115672015","1","0.9911554618717999254","42","20","10","0","0","1","0","4","41","10","9","30","1","4518","8231","582","1"
"6.6.1","mac","0","2023-02-27","17:52:46","296142977","1","1","experiment","5","experiment_U","663","1","52","IEV","POS","1","","","","","","52","20","10","0","0","1","0","4","41","10","9","30","1","4518","8231","582","1"
"6.6.1","mac","0","2023-02-27","17:52:46","296142977","1","1","experiment","5","dispFeedback_U","1000","1","52","IEV","POS","1","206","0.2745111798635835321","56.626765940214419004","206","0.0607028203226399679","52","20","10","0","0","2","0","4","41","11","9","30","1","4513","8437","592","10"
"6.6.1","mac","0","2023-02-27","17:52:46","296142977","1","1","experiment","5","experiment_U","2568","1","16","IEV","POS","1","","","","","","16","20","10","0","0","2","0","4","41","11","9","30","1","4513","8437","592","10"
"6.6.1","mac","0","2023-02-27","17:52:46","296142977","1","1","experiment","5","dispFeedback_U","1000","1","16","IEV","POS","1","222","0.2545658821762707968","56.5589845406826583485","222","0.0030178383465432187","16","20","10","0","0","3","0","4","41","12","9","30","1","4618","8659","602","10"
"6.6.1","mac","0","2023-02-27","17:52:46","296142977","1","1","experiment","5","experiment_U","2781","1","15","IEV","POS","1","","","","","","15","20","10","0","0","3","0","4","41","12","9","30","1","4618","8659","602","10"
"6.6.1","mac","0","2023-02-27","17:52:46","296142977","1","1","experiment","5","dispFeedback_U","1000","1","15","IEV","POS","1","256","0.2244413606505586689","57.439795318033695537","256","0.1487608384687362229","15","20","10","0","0","4","0","4","41","13","9","30","1","4781","8915","612","10"
"6.6.1","mac","0","2023-02-27","17:52:46","296142977","1","1","experiment","5","experiment_U","4453","1","76","IEV","POS","1","","","","","","76","20","10","0","0","4","0","4","41","13","9","30","1","4781","8915","612","10"
"6.6.1","mac","0","2023-02-27","17:52:46","296142977","1","1","experiment","5","dispFeedback_U","1000","1","76","IEV","POS","1","205","0.2764314669159644855","56.5822874474300476777","1","0.5680243795663174611","76","20","10","0","0","5","0","4","41","14","9","30","1","4503","8916","613","1"
"6.6.1","mac","0","2023-02-27","17:52:46","296142977","1","1","experiment","5","experiment_U","2277","1","13","IEV","POS","1","","","","","","13","20","10","0","0","5","0","4","41","14","9","30","1","4503","8916","613","1"
"6.6.1","mac","0","2023-02-27","17:52:46","296142977","1","1","experiment","5","dispFeedback_U","1000","1","13","IEV","POS","1","161","0.3407693054592847437","54.8882204800047404092","1","0.4794323161429335234","13","20","10","0","0","6","0","4","41","15","9","30","1","4177","8917","614","1"
"6.6.1","mac","0","2023-02-27","17:52:46","296142977","1","1","experiment","5","experiment_U","5074","1","64","IEV","POS","1","","","","","","64","20","10","0","0","6","0","4","41","15","9","30","1","4177","8917","614","1"
"6.6.1","mac","0","2023-02-27","17:52:46","296142977","1","1","experiment","5","dispFeedback_U","1000","1","64","IEV","POS","1","203","0.2724029313526775686","55.3131803704713576053","1","0.7353491032811229067","64","20","10","0","0","7","0","4","41","16","9","30","1","4524","8918","615","1"
"6.6.1","mac","0","2023-02-27","17:52:46","296142977","1","1","experiment","5","experiment_U","4491","1","75","IEV","POS","1","","","","","","75","20","10","0","0","7","0","4","41","16","9","30","1","4524","8918","615","1"
"6.6.1","mac","0","2023-02-27","17:52:46","296142977","1","1","experiment","5","dispFeedback_U","1000","1","75","IEV","POS","1","199","0.278740419006695439","55.413380997825271379","1","0.3801415849896477295","75","20","10","0","0","8","0","4","41","17","9","30","1","4491","8919","616","1"
"6.6.1","mac","0","2023-02-27","17:52:46","296142977","1","1","experiment","5","experiment_U","4798","1","78","IEV","POS","1","","","","","","78","20","10","0","0","8","0","4","41","17","9","30","1","4491","8919","616","1"
"6.6.1","mac","0","2023-02-27","17:52:46","296142977","1","1","experiment","5","dispFeedback_U","1000","1","78","IEV","POS","1","296","0.1947201945450759142","57.5876265304597438899","1","0.4758875878704449947","78","20","10","0","0","9","0","4","41","18","9","30","1","4948","8920","617","1"
"6.6.1","mac","0","2023-02-27","17:52:46","296142977","1","1","experiment","5","experiment_U","6500","1","89","IEV","POS","1","","","","","","89","20","10","0","0","9","0","4","41","18","9","30","1","4948","8920","617","1"
"6.6.1","mac","0","2023-02-27","17:52:46","296142977","1","1","experiment","5","dispFeedback_U","1000","1","89","IEV","POS","1","51","0.729549204570986376","36.9274485525300164568","51","0.4513293657105717505","89","20","10","0","0","10","0","4","41","19","9","30","1","2200","8971","617","0"
"6.6.1","mac","0","2023-02-27","17:52:46","296142977","1","1","experiment","5","experiment_U","506","1","47","IEV","POS","1","","","","","","47","20","10","0","0","10","0","4","41","19","9","30","1","2200","8971","617","0"
"6.6.1","mac","0","2023-02-27","17:52:46","296142977","1","1","experiment","5","dispFeedback_U","1000","1","47","IEV","POS","1","149","0.3551647163631861948","53.0339932027407954251","149","0.2903873820999607891","47","20","10","0","0","11","0","4","41","20","9","30","1","4106","9120","627","10"
"6.6.1","mac","0","2023-02-27","17:52:46","296142977","1","1","experiment","5","experiment_U","4783","1","69","IEV","POS","1","","","","","","69","20","10","0","0","11","0","4","41","20","9","30","1","4106","9120","627","10"
"6.6.1","mac","0","2023-02-27","17:52:46","296142977","1","1","experiment","5","dispFeedback_U","1000","1","69","IEV","POS","1","204","0.2802824902520179573","57.0525974306358918398","1","0.4858492013266890175","69","20","10","0","0","12","0","4","41","21","9","30","1","4483","9121","628","1"
"6.6.1","mac","0","2023-02-27","17:52:46","296142977","1","1","experiment","5","experiment_U","4008","1","79","IEV","POS","1","","","","","","79","20","10","0","0","12","0","4","41","21","9","30","1","4483","9121","628","1"
"6.6.1","mac","0","2023-02-27","17:52:46","296142977","1","1","experiment","5","dispFeedback_U","1000","1","79","IEV","POS","1","165","0.3345214698588803159","55.0701703202505612467","165","0.3297726249624445827","79","20","10","0","0","13","0","4","41","22","9","30","1","4208","9286","638","10"
"6.6.1","mac","0","2023-02-27","17:52:46","296142977","1","1","experiment","5","experiment_U","5096","1","59","IEV","POS","1","","","","","","59","20","10","0","0","13","0","4","41","22","9","30","1","4208","9286","638","10"
"6.6.1","mac","0","2023-02-27","17:52:46","296142977","1","1","experiment","5","dispFeedback_U","1000","1","59","IEV","POS","1","178","0.3169220090647622556","56.5132490808520557835","178","0.1157311033726975136","59","20","10","0","0","14","0","4","41","23","9","30","1","4296","9464","648","10"
"6.6.1","mac","0","2023-02-27","17:52:46","296142977","1","1","experiment","5","experiment_U","4016","1","71","IEV","POS","1","","","","","","71","20","10","0","0","14","0","4","41","23","9","30","1","4296","9464","648","10"
"6.6.1","mac","0","2023-02-27","17:52:46","296142977","1","1","experiment","5","dispFeedback_U","1000","1","71","IEV","POS","1","129","0.4149330595307493819","53.6843721534230979842","129","0.2115984163739714763","71","20","10","0","0","15","0","4","41","24","9","30","1","3816","9593","657","9"
"6.6.1","mac","0","2023-02-27","17:52:46","296142977","1","1","experiment","5","experiment_U","771","1","38","IEV","POS","1","","","","","","38","20","10","0","0","15","0","4","41","24","9","30","1","3816","9593","657","9"
"6.6.1","mac","0","2023-02-27","17:52:46","296142977","1","1","experiment","5","dispFeedback_U","1000","1","38","IEV","POS","1","135","0.3931469225678257406","53.2143551157448371214","1","0.8505060094991945263","38","20","10","0","0","16","0","4","41","25","9","30","1","3921","9594","658","1"
"6.6.1","mac","0","2023-02-27","17:52:46","296142977","1","1","experiment","5","experiment_U","677","1","58","IEV","POS","1","","","","","","58","20","10","0","0","16","0","4","41","25","9","30","1","3921","9594","658","1"
"6.6.1","mac","0","2023-02-27","17:52:46","296142977","1","1","experiment","5","dispFeedback_U","1000","1","58","IEV","POS","1","263","0.2161356666119977343","56.9494285227328376209","1","0.5217579052601377665","58","20","10","0","0","17","0","4","41","26","9","30","1","4827","9595","659","1"
"6.6.1","mac","0","2023-02-27","17:52:46","296142977","1","1","experiment","5","experiment_U","6500","1","87","IEV","POS","1","","","","","","87","20","10","0","0","17","0","4","41","26","9","30","1","4827","9595","659","1"
"6.6.1","mac","0","2023-02-27","17:52:46","296142977","1","1","experiment","5","dispFeedback_U","1000","1","87","IEV","POS","1","41","0.7452874741692946392","30.5266666699836406451","1","0.7917176803554681896","87","20","10","0","0","18","0","4","41","27","9","30","1","2100","9596","659","0"
"6.6.1","mac","0","2023-02-27","17:52:46","296142977","1","1","experiment","5","experiment_U","1384","1","32","IEV","POS","1","","","","","","32","20","10","0","0","18","0","4","41","27","9","30","1","2100","9596","659","0"
"6.6.1","mac","0","2023-02-27","17:52:46","296142977","1","1","experiment","5","dispFeedback_U","1000","1","32","IEV","POS","1","164","0.3293000928726987908","53.9021402475078090788","1","0.3655174724677385245","32","20","10","0","0","19","0","4","41","28","9","30","0","4234","9597","660","1"
"6.6.1","mac","0","2023-02-27","17:52:46","296142977","1","1","experiment","5","experiment_noU","2006","1","22","IEV","POS","1","","","","","","22","20","10","0","0","19","0","4","41","28","9","30","0","4234","9597","660","1"
"6.6.1","mac","0","2023-02-27","17:52:46","296142977","1","1","experiment","5","dispFeedback_noU","1000","1","22","IEV","POS","1","177","0.305047288355476176","54.0475452145574948304","177","0.4212562722203452847","22","20","10","0","0","19","0","4","41","29","9","30","0","4356","9774","670","10"
"6.6.1","mac","0","2023-02-27","17:52:46","296142977","1","1","experiment","5","experiment_noU","520","1","60","IEV","POS","1","","","","","","60","20","10","0","0","19","0","4","41","29","9","30","0","4356","9774","670","10"
"6.6.1","mac","0","2023-02-27","17:52:46","296142977","1","1","experiment","5","dispFeedback_noU","1000","1","60","IEV","POS","1","254","0.2264405891894623046","57.6272623910788013291","254","0.0846285917993235826","60","20","10","0","0","19","0","4","41","30","9","30","2","4770","10028","680","10"
"6.6.1","mac","0","2023-02-27","17:52:46","296142977","1","1","experiment","5","experiment_U","1971","1","29","IEV","POS","1","","","","","","29","20","10","0","0","19","0","4","41","30","9","30","2","4770","10028","680","10"
"6.6.1","mac","0","2023-02-27","17:52:46","296142977","1","1","experiment","5","dispFeedback_U","1000","1","29","IEV","POS","1","236","0.2446553041348576429","57.7628239359105251083","1","0.9367085106057833066","29","20","10","0","0","19","1","4","41","31","9","30","2","4671","10029","681","1"
"6.6.1","mac","0","2023-02-27","17:52:46","296142977","1","1","experiment","5","experiment_U","985","1","44","IEV","POS","1","","","","","","44","20","10","0","0","19","1","4","41","31","9","30","2","4671","10029","681","1"
"6.6.1","mac","0","2023-02-27","17:52:46","296142977","1","1","experiment","5","dispFeedback_U","1000","1","44","IEV","POS","1","189","0.289580570658963754","54.8203930184885521726","189","0.079413448246059351","44","20","10","0","0","19","2","4","41","32","9","30","2","4435","10218","691","10"
"6.6.1","mac","0","2023-02-27","17:52:46","296142977","1","1","experiment","5","experiment_U","2596","1","13","IEV","POS","1","","","","","","13","20","10","0","0","19","2","4","41","32","9","30","2","4435","10218","691","10"
"6.6.1","mac","0","2023-02-27","17:52:46","296142977","1","1","experiment","5","dispFeedback_U","1000","1","13","IEV","POS","1","203","0.2777777475736368795","56.2731177147051724319","203","0.1889901399121131087","13","20","10","0","0","19","3","4","41","33","9","30","2","4496","10421","701","10"
"6.6.1","mac","0","2023-02-27","17:52:46","296142977","1","1","experiment","5","experiment_U","2858","1","10","IEV","POS","1","","","","","","10","20","10","0","0","19","3","4","41","33","9","30","2","4496","10421","701","10"
"6.6.1","mac","0","2023-02-27","17:52:46","296142977","1","1","experiment","5","dispFeedback_U","1000","1","10","IEV","POS","1","218","0.2564478673588065361","56.0022821174340208472","1","0.5390170257396570408","10","20","10","0","0","19","4","4","41","34","9","30","2","4608","10422","702","1"
"6.6.1","mac","0","2023-02-27","17:52:46","296142977","1","1","experiment","5","experiment_U","3463","1","93","IEV","POS","1","","","","","","93","20","10","0","0","19","4","4","41","34","9","30","2","4608","10422","702","1"
"6.6.1","mac","0","2023-02-27","17:52:46","296142977","1","1","experiment","5","dispFeedback_U","1000","1","93","IEV","POS","1","182","0.3036689119681630356","55.3062188325859125371","182","0.099884099583114519","93","20","10","0","0","19","5","4","41","35","9","30","2","4363","10604","712","10"
"6.6.1","mac","0","2023-02-27","17:52:46","296142977","1","1","experiment","5","experiment_U","1290","1","39","IEV","POS","1","","","","","","39","20","10","0","0","19","5","4","41","35","9","30","2","4363","10604","712","10"
"6.6.1","mac","0","2023-02-27","17:52:46","296142977","1","1","experiment","5","dispFeedback_U","1000","1","39","IEV","POS","1","201","0.2789330571634321965","55.965952987711439448","1","0.5315873971049644986","39","20","10","0","0","19","6","4","41","36","9","30","2","4490","10605","713","1"
"6.6.1","mac","0","2023-02-27","17:52:46","296142977","1","1","experiment","5","experiment_U","2018","1","34","IEV","POS","1","","","","","","34","20","10","0","0","19","6","4","41","36","9","30","2","4490","10605","713","1"
"6.6.1","mac","0","2023-02-27","17:52:46","296142977","1","1","experiment","5","dispFeedback_U","1000","1","34","IEV","POS","1","307","0.191242130166053903","58.7998738809086489709","1","0.2797412495780133845","34","20","10","0","0","19","7","4","41","37","9","30","2","4968","10606","714","1"
"6.6.1","mac","0","2023-02-27","17:52:46","296142977","1","1","experiment","5","experiment_U","1377","1","34","IEV","POS","1","","","","","","34","20","10","0","0","19","7","4","41","37","9","30","2","4968","10606","714","1"
"6.6.1","mac","0","2023-02-27","17:52:46","296142977","1","1","experiment","5","dispFeedback_U","1000","1","34","IEV","POS","1","174","0.3107734823561446591","54.1735865740042470406","174","0.0209736581940608222","34","20","10","0","0","19","8","4","41","38","9","30","2","4327","10780","724","10"
"6.6.1","mac","0","2023-02-27","17:52:46","296142977","1","1","experiment","5","experiment_U","4255","1","75","IEV","POS","1","","","","","","75","20","10","0","0","19","8","4","41","38","9","30","2","4327","10780","724","10"
"6.6.1","mac","0","2023-02-27","17:52:46","296142977","1","1","experiment","5","dispFeedback_U","1000","1","75","IEV","POS","1","172","0.3250957742029847997","55.987737091808178036","1","0.4304828635487898403","75","20","10","0","0","19","9","4","41","39","9","30","2","4255","10781","725","1"
"6.6.1","mac","0","2023-02-27","17:52:46","296142977","1","1","experiment","5","experiment_U","2262","1","16","IEV","POS","1","","","","","","16","20","10","0","0","19","9","4","41","39","9","30","2","4255","10781","725","1"
"6.6.1","mac","0","2023-02-27","17:52:46","296142977","1","1","experiment","5","dispFeedback_U","1000","1","16","IEV","POS","1","178","0.3137450963110174906","55.9619212882478009874","178","0.2224722623877395666","16","20","10","0","0","19","10","4","41","40","9","30","2","4312","10959","735","10"
"6.6.1","mac","0","2023-02-27","17:52:46","296142977","1","1","experiment","5","experiment_U","3384","1","96","IEV","POS","1","","","","","","96","20","10","0","0","19","10","4","41","40","9","30","2","4312","10959","735","10"
"6.6.1","mac","0","2023-02-27","17:52:46","296142977","1","1","experiment","5","dispFeedback_U","1000","1","96","IEV","POS","1","196","0.2897750991849311619","56.8430771317410759025","1","0.4194091566417853523","96","20","10","0","0","19","11","4","41","41","9","30","2","4434","10960","736","1"
"6.6.1","mac","0","2023-02-27","17:52:46","296142977","1","1","experiment","6","experiment_noU","631","1","55","IEV","POS","1","","","","","","55","40","5","0","0","0","0","5","38","0","12","28","2","4434","10960","736","1"
"6.6.1","mac","0","2023-02-27","17:52:46","296142977","1","1","experiment","6","dispFeedback_noU","1000","1","55","IEV","POS","1","221","0.2521249794383741971","55.6068064148031950822","221","0.4803831715789584345","55","40","5","0","0","0","0","5","38","1","12","28","0","4631","11181","746","10"
"6.6.1","mac","0","2023-02-27","17:52:46","296142977","1","1","experiment","6","experiment_noU","1129","1","45","IEV","POS","1","","","","","","45","40","5","0","0","0","0","5","38","1","12","28","0","4631","11181","746","10"
"6.6.1","mac","0","2023-02-27","17:52:46","296142977","1","1","experiment","6","dispFeedback_noU","1000","1","45","IEV","POS","1","222","0.2525000832772703041","56.1016872539316509005","222","0.0960645764358492027","45","40","5","0","0","0","0","5","38","2","12","28","0","4629","11403","756","10"
"6.6.1","mac","0","2023-02-27","17:52:46","296142977","1","1","experiment","6","experiment_noU","2162","1","23","IEV","POS","1","","","","","","23","40","5","0","0","0","0","5","38","2","12","28","0","4629","11403","756","10"
"6.6.1","mac","0","2023-02-27","17:52:46","296142977","1","1","experiment","6","dispFeedback_noU","1000","1","23","IEV","POS","1","208","0.2651531781288587464","55.2475982668613596616","208","0.1982698308299923884","23","40","5","0","0","0","0","5","38","3","12","28","0","4562","11611","766","10"
"6.6.1","mac","0","2023-02-27","17:52:46","296142977","1","1","experiment","6","experiment_noU","2553","1","14","IEV","POS","1","","","","","","14","40","5","0","0","0","0","5","38","3","12","28","0","4562","11611","766","10"
"6.6.1","mac","0","2023-02-27","17:52:46","296142977","1","1","experiment","6","dispFeedback_noU","1000","1","14","IEV","POS","1","207","0.2764314669159644855","57.1351503812619796463","207","0.9726607215061459089","14","40","5","0","0","0","0","5","38","4","12","28","0","4503","11818","776","10"
"6.6.1","mac","0","2023-02-27","17:52:46","296142977","1","1","experiment","6","experiment_noU","3374","1","0","IEV","POS","1","","","","","","0","40","5","0","0","0","0","5","38","4","12","28","0","4503","11818","776","10"
"6.6.1","mac","0","2023-02-27","17:52:46","296142977","1","1","experiment","6","dispFeedback_noU","1000","1","0","IEV","POS","1","220","0.2534385113642547149","55.8247515254363619874","220","0.9216566749200356679","0","40","5","0","0","0","0","5","38","5","12","28","0","4624","12038","786","10"
"6.6.1","mac","0","2023-02-27","17:52:46","296142977","1","1","experiment","6","experiment_noU","1249","1","28","IEV","POS","1","","","","","","28","40","5","0","0","0","0","5","38","5","12","28","0","4624","12038","786","10"
"6.6.1","mac","0","2023-02-27","17:52:46","296142977","1","1","experiment","6","dispFeedback_noU","1000","1","28","IEV","POS","1","129","0.3977006102833861023","51.46544115169814404","129","0.11098810520744605","28","40","5","0","0","0","0","5","38","6","12","28","0","3899","12167","795","9"
"6.6.1","mac","0","2023-02-27","17:52:46","296142977","1","1","experiment","6","experiment_noU","3206","1","1","IEV","POS","1","","","","","","1","40","5","0","0","0","0","5","38","6","12","28","0","3899","12167","795","9"
"6.6.1","mac","0","2023-02-27","17:52:46","296142977","1","1","experiment","6","dispFeedback_noU","1000","1","1","IEV","POS","1","203","0.2758550128072100871","56.0439662748596987285","203","0.3013080172942271262","1","40","5","0","0","0","0","5","38","7","12","28","0","4506","12370","805","10"
"6.6.1","mac","0","2023-02-27","17:52:46","296142977","1","1","experiment","6","experiment_noU","3180","1","4","IEV","POS","1","","","","","","4","40","5","0","0","0","0","5","38","7","12","28","0","4506","12370","805","10"
"6.6.1","mac","0","2023-02-27","17:52:46","296142977","1","1","experiment","6","dispFeedback_noU","1000","1","4","IEV","POS","1","225","0.2523125122339252013","56.8633114748356476298","225","0.077137696574706982","4","40","5","0","0","0","0","5","38","8","12","28","0","4630","12595","815","10"
"6.6.1","mac","0","2023-02-27","17:52:46","296142977","1","1","experiment","6","experiment_noU","4237","1","77","IEV","POS","1","","","","","","77","40","5","0","0","0","0","5","38","8","12","28","0","4630","12595","815","10"
"6.6.1","mac","0","2023-02-27","17:52:46","296142977","1","1","experiment","6","dispFeedback_noU","1000","1","77","IEV","POS","1","180","0.3087960882920018357","55.4709416998090674156","180","0.6647595683263520794","77","40","5","0","0","0","0","5","38","9","12","28","0","4337","12775","825","10"
"6.6.1","mac","0","2023-02-27","17:52:46","296142977","1","1","experiment","6","experiment_noU","540","1","60","IEV","POS","1","","","","","","60","40","5","0","0","0","0","5","38","9","12","28","0","4337","12775","825","10"
"6.6.1","mac","0","2023-02-27","17:52:46","296142977","1","1","experiment","6","dispFeedback_noU","1000","1","60","IEV","POS","1","254","0.2228093636510481146","56.5801033630211094305","254","0.5342117097541251303","60","40","5","0","0","0","0","5","38","10","12","28","0","4790","13029","835","10"
"6.6.1","mac","0","2023-02-27","17:52:46","296142977","1","1","experiment","6","experiment_noU","4963","1","66","IEV","POS","1","","","","","","66","40","5","0","0","0","0","5","38","10","12","28","0","4790","13029","835","10"
"6.6.1","mac","0","2023-02-27","17:52:46","296142977","1","1","experiment","6","dispFeedback_noU","1000","1","66","IEV","POS","1","205","0.2745111798635835321","56.3522547603508385805","205","0.5415018386071319689","66","40","5","0","0","0","0","5","38","11","12","28","0","4513","13234","845","10"
"6.6.1","mac","0","2023-02-27","17:52:46","296142977","1","1","experiment","6","experiment_noU","4776","1","63","IEV","POS","1","","","","","","63","40","5","0","0","0","0","5","38","11","12","28","0","4513","13234","845","10"
"6.6.1","mac","0","2023-02-27","17:52:46","296142977","1","1","experiment","6","dispFeedback_noU","1000","1","63","IEV","POS","1","156","0.3409712418987217997","53.1774206402105278357","156","0.8600156551366708868","63","40","5","0","0","0","0","5","38","12","12","28","1","4176","13390","855","10"
"6.6.1","mac","0","2023-02-27","17:52:46","296142977","1","1","experiment","6","experiment_U","6500","1","11","IEV","POS","1","","","","","","11","40","5","0","0","0","0","5","38","12","12","28","1","4176","13390","855","10"
"6.6.1","mac","0","2023-02-27","17:52:46","296142977","1","1","experiment","6","dispFeedback_U","1000","1","11","IEV","POS","1","95","0.5224614300046996895","49.4907703758582684372","1","0.6444699199973767945","11","40","5","1","0","1","0","5","38","13","12","28","1","3300","13391","855","0"
"6.6.1","mac","0","2023-02-27","17:52:46","296142977","1","1","experiment","6","experiment_U","3003","1","2","IEV","POS","1","","","","","","2","40","5","1","0","1","0","5","38","13","12","28","1","3300","13391","855","0"
"6.6.1","mac","0","2023-02-27","17:52:46","296142977","1","1","experiment","6","dispFeedback_U","1000","1","2","IEV","POS","1","181","0.3056384787161941508","55.251172424469508826","1","0.7338953571705835177","2","40","5","2","0","2","0","5","38","14","12","28","1","4353","13392","856","1"
"6.6.1","mac","0","2023-02-27","17:52:46","296142977","1","1","experiment","6","experiment_U","3353","1","6","IEV","POS","1","","","","","","6","40","5","2","0","2","0","5","38","14","12","28","1","4353","13392","856","1"
"6.6.1","mac","0","2023-02-27","17:52:46","296142977","1","1","experiment","6","dispFeedback_U","1000","1","6","IEV","POS","1","284","0.2026103612401705389","57.6394030277210305258","1","0.5539537357524860761","6","40","5","3","0","3","0","5","38","15","12","28","1","4903","13393","857","1"
"6.6.1","mac","0","2023-02-27","17:52:46","296142977","1","1","experiment","6","experiment_U","417","1","51","IEV","POS","1","","","","","","51","40","5","3","0","3","0","5","38","15","12","28","1","4903","13393","857","1"
"6.6.1","mac","0","2023-02-27","17:52:46","296142977","1","1","experiment","6","dispFeedback_U","1000","1","51","IEV","POS","1","163","0.3327120979281900648","54.1240237391299885417","163","0.0919865968385680105","51","40","5","4","0","4","0","5","38","16","12","28","0","4217","13556","867","10"
"6.6.1","mac","0","2023-02-27","17:52:46","296142977","1","1","experiment","6","experiment_noU","3127","1","96","IEV","POS","1","","","","","","96","40","5","4","0","4","0","5","38","16","12","28","0","4217","13556","867","10"
"6.6.1","mac","0","2023-02-27","17:52:46","296142977","1","1","experiment","6","dispFeedback_noU","1000","1","96","IEV","POS","1","164","0.3407693054592847437","55.9105283963825954174","164","0.280226321024872882","96","40","5","4","0","4","0","5","38","17","12","28","0","4177","13720","877","10"
"6.6.1","mac","0","2023-02-27","17:52:46","296142977","1","1","experiment","6","experiment_noU","2856","1","5","IEV","POS","1","","","","","","5","40","5","4","0","4","0","5","38","17","12","28","0","4177","13720","877","10"
"6.6.1","mac","0","2023-02-27","17:52:46","296142977","1","1","experiment","6","dispFeedback_noU","1000","1","5","IEV","POS","1","183","0.305047288355476176","55.8778289446903499993","183","0.1723803861933714543","5","40","5","4","0","4","0","5","38","18","12","28","0","4356","13903","887","10"
"6.6.1","mac","0","2023-02-27","17:52:46","296142977","1","1","experiment","6","experiment_noU","734","1","61","IEV","POS","1","","","","","","61","40","5","4","0","4","0","5","38","18","12","28","0","4356","13903","887","10"
"6.6.1","mac","0","2023-02-27","17:52:46","296142977","1","1","experiment","6","dispFeedback_noU","1000","1","61","IEV","POS","1","19","0.8999231897036835681","16.8135157521777074408","19","0.805110652652827663","61","40","5","4","0","4","0","5","38","19","12","28","0","34","13922","888","1"
"6.6.1","mac","0","2023-02-27","17:52:46","296142977","1","1","experiment","6","experiment_noU","3232","1","94","IEV","POS","1","","","","","","94","40","5","4","0","4","0","5","38","19","12","28","0","34","13922","888","1"
"6.6.1","mac","0","2023-02-27","17:52:46","296142977","1","1","experiment","6","dispFeedback_noU","1000","1","94","IEV","POS","1","164","0.3397599872177488045","55.5973889071698863518","164","0.6360807709014231204","94","40","5","4","0","4","0","5","38","20","12","28","0","4182","14086","898","10"
"6.6.1","mac","0","2023-02-27","17:52:46","296142977","1","1","experiment","6","experiment_noU","388","1","60","IEV","POS","1","","","","","","60","40","5","4","0","4","0","5","38","20","12","28","0","4182","14086","898","10"
"6.6.1","mac","0","2023-02-27","17:52:46","296142977","1","1","experiment","6","dispFeedback_noU","1000","1","60","IEV","POS","1","224","0.2508133228301981932","56.1437146202314210086","224","0.4819721932248147711","60","40","5","4","0","4","0","5","38","21","12","28","0","4638","14310","908","10"
"6.6.1","mac","0","2023-02-27","17:52:46","296142977","1","1","experiment","6","experiment_noU","473","1","53","IEV","POS","1","","","","","","53","40","5","4","0","4","0","5","38","21","12","28","0","4638","14310","908","10"
"6.6.1","mac","0","2023-02-27","17:52:46","296142977","1","1","experiment","6","dispFeedback_noU","1000","1","53","IEV","POS","1","188","0.3017024143648679435","56.8693205397821088809","188","0.3421273779454937491","53","40","5","4","0","4","0","5","38","22","12","28","0","4373","14498","918","10"
"6.6.1","mac","0","2023-02-27","17:52:46","296142977","1","1","experiment","6","experiment_noU","476","1","53","IEV","POS","1","","","","","","53","40","5","4","0","4","0","5","38","22","12","28","0","4373","14498","918","10"
"6.6.1","mac","0","2023-02-27","17:52:46","296142977","1","1","experiment","6","dispFeedback_noU","1000","1","53","IEV","POS","1","181","0.3011130683798056706","54.4737572359694297575","181","0.6674911702674559688","53","40","5","4","0","4","0","5","38","23","12","28","0","4376","14679","928","10"
"6.6.1","mac","0","2023-02-27","17:52:46","296142977","1","1","experiment","6","experiment_noU","953","1","41","IEV","POS","1","","","","","","41","40","5","4","0","4","0","5","38","23","12","28","0","4376","14679","928","10"
"6.6.1","mac","0","2023-02-27","17:52:46","296142977","1","1","experiment","6","dispFeedback_noU","1000","1","41","IEV","POS","1","165","0.3254956768470675388","53.698897097692629643","165","0.2768324735287652771","41","40","5","4","0","4","0","5","38","24","12","28","0","4253","14844","938","10"
"6.6.1","mac","0","2023-02-27","17:52:46","296142977","1","1","experiment","6","experiment_noU","3705","1","84","IEV","POS","1","","","","","","84","40","5","4","0","4","0","5","38","24","12","28","0","4253","14844","938","10"
"6.6.1","mac","0","2023-02-27","17:52:46","296142977","1","1","experiment","6","dispFeedback_noU","1000","1","84","IEV","POS","1","157","0.3452174343490167496","54.0659515073029197652","157","0.1951163632783844137","84","40","5","4","0","4","0","5","38","25","12","28","0","4155","15001","948","10"
"6.6.1","mac","0","2023-02-27","17:52:46","296142977","1","1","experiment","6","experiment_noU","4508","1","69","IEV","POS","1","","","","","","69","40","5","4","0","4","0","5","38","25","12","28","0","4155","15001","948","10"
"6.6.1","mac","0","2023-02-27","17:52:46","296142977","1","1","experiment","6","dispFeedback_noU","1000","1","69","IEV","POS","1","164","0.3345214698588803159","54.7356488503916764898","164","0.631826771570329293","69","40","5","4","0","4","0","5","38","26","12","28","0","4208","15165","958","10"
"6.6.1","mac","0","2023-02-27","17:52:46","296142977","1","1","experiment","6","experiment_noU","471","1","53","IEV","POS","1","","","","","","53","40","5","4","0","4","0","5","38","26","12","28","0","4208","15165","958","10"
"6.6.1","mac","0","2023-02-27","17:52:46","296142977","1","1","experiment","6","dispFeedback_noU","1000","1","53","IEV","POS","1","181","0.3020954668070222615","54.7457361001039402026","181","0.7701229697023804777","53","40","5","4","0","4","0","5","38","27","12","28","0","4371","15346","968","10"
"6.6.1","mac","0","2023-02-27","17:52:46","296142977","1","1","experiment","6","experiment_noU","2262","1","8","IEV","POS","1","","","","","","8","40","5","4","0","4","0","5","38","27","12","28","0","4371","15346","968","10"
"6.6.1","mac","0","2023-02-27","17:52:46","296142977","1","1","experiment","6","dispFeedback_noU","1000","1","8","IEV","POS","1","133","0.3950090066995724514","52.3599267548434497144","133","0.2483148861788946338","8","40","5","4","0","4","0","5","38","28","12","28","2","3912","15479","977","9"
"6.6.1","mac","0","2023-02-27","17:52:46","296142977","1","1","experiment","6","experiment_U","445","1","70","IEV","POS","1","","","","","","70","40","5","4","0","4","0","5","38","28","12","28","2","3912","15479","977","9"
"6.6.1","mac","0","2023-02-27","17:52:46","296142977","1","1","experiment","6","dispFeedback_U","1000","1","70","IEV","POS","1","14","0.8987902663797509017","12.4754314969040365213","14","0.38189859021964917","70","40","5","4","1","4","1","5","38","29","12","28","2","195","15493","978","1"
"6.6.1","mac","0","2023-02-27","17:52:46","296142977","1","1","experiment","6","experiment_U","1351","1","41","IEV","POS","1","","","","","","41","40","5","4","1","4","1","5","38","29","12","28","2","195","15493","978","1"
"6.6.1","mac","0","2023-02-27","17:52:46","296142977","1","1","experiment","6","dispFeedback_U","1000","1","41","IEV","POS","1","229","0.2483823924801302763","56.9489629970532647008","1","0.6875321256666285796","41","40","5","4","2","4","2","5","38","30","12","28","2","4651","15494","979","1"
"6.6.1","mac","0","2023-02-27","17:52:46","296142977","1","1","experiment","6","experiment_U","392","1","63","IEV","POS","1","","","","","","63","40","5","4","2","4","2","5","38","30","12","28","2","4651","15494","979","1"
"6.6.1","mac","0","2023-02-27","17:52:46","296142977","1","1","experiment","6","dispFeedback_U","1000","1","63","IEV","POS","1","260","0.2224471557422136592","57.9232036503845506559","1","0.5223632637696254966","63","40","5","4","3","4","3","5","38","31","12","28","2","4792","15495","980","1"
"6.6.1","mac","0","2023-02-27","17:52:46","296142977","1","1","experiment","6","experiment_U","4333","1","84","IEV","POS","1","","","","","","84","40","5","4","3","4","3","5","38","31","12","28","2","4792","15495","980","1"
"6.6.1","mac","0","2023-02-27","17:52:46","296142977","1","1","experiment","6","dispFeedback_U","1000","1","84","IEV","POS","1","252","0.2240784035360148252","56.5505183336152299489","1","0.6955419135502404204","84","40","5","4","4","4","4","5","38","32","12","28","0","4783","15496","981","1"
"6.6.1","mac","0","2023-02-27","17:52:46","296142977","1","1","experiment","6","experiment_noU","3431","1","95","IEV","POS","1","","","","","","95","40","5","4","4","4","4","5","38","32","12","28","0","4783","15496","981","1"
"6.6.1","mac","0","2023-02-27","17:52:46","296142977","1","1","experiment","6","dispFeedback_noU","1000","1","95","IEV","POS","1","187","0.2903588821091819261","54.2166814113830639599","187","0.6426737780316439386","95","40","5","4","4","4","4","5","38","33","12","28","0","4431","15683","991","10"
"6.6.1","mac","0","2023-02-27","17:52:46","296142977","1","1","experiment","6","experiment_noU","3598","1","91","IEV","POS","1","","","","","","91","40","5","4","4","4","4","5","38","33","12","28","0","4431","15683","991","10"
"6.6.1","mac","0","2023-02-27","17:52:46","296142977","1","1","experiment","6","dispFeedback_noU","1000","1","91","IEV","POS","1","185","0.2967998080926144144","54.901691412308800011","185","0.8415336690008485832","91","40","5","4","4","4","4","5","38","34","12","28","0","4398","15868","1001","10"
"6.6.1","mac","0","2023-02-27","17:52:46","296142977","1","1","experiment","6","experiment_noU","1784","1","26","IEV","POS","1","","","","","","26","40","5","4","4","4","4","5","38","34","12","28","0","4398","15868","1001","10"
"6.6.1","mac","0","2023-02-27","17:52:46","296142977","1","1","experiment","6","dispFeedback_noU","1000","1","26","IEV","POS","1","176","0.3093889946683699987","54.5265443122335682347","176","0.085234309100833322","26","40","5","4","4","4","4","5","38","35","12","28","0","4334","16044","1011","10"
"6.6.1","mac","0","2023-02-27","17:52:46","296142977","1","1","experiment","6","experiment_noU","2480","1","16","IEV","POS","1","","","","","","16","40","5","4","4","4","4","5","38","35","12","28","0","4334","16044","1011","10"
"6.6.1","mac","0","2023-02-27","17:52:46","296142977","1","1","experiment","6","dispFeedback_noU","1000","1","16","IEV","POS","1","211","0.2712547862602157633","57.2439016377699090299","211","0.8644842249025787018","16","40","5","4","4","4","4","5","38","36","12","28","0","4530","16255","1021","10"
"6.6.1","mac","0","2023-02-27","17:52:46","296142977","1","1","experiment","6","experiment_noU","2939","1","7","IEV","POS","1","","","","","","7","40","5","4","4","4","4","5","38","36","12","28","0","4530","16255","1021","10"
