build	computer.platform	computer.touch	date	time	subject	group	sessionid	blockcode	blocknum	trialcode	list.ITI.currentvalue	list.preClockFreeze.currentvalue	latency	list.ISI.currentvalue	block	trialCount	trial	run_trial	block_trial	block_type	trial_type	last_block_type	generate_new_erasure	trial_since_erasure_gen	att_index	era_index	x_final	y_final	ITI_index	seed	list.era_loc.currentvalue	has_erasure	list.att_loc.currentvalue	n_clicks	n_clicks_era_only	timeout_block	timeouts_remain	stim_center_deg	startPos	pos_shifted	rt_shifted	mag	inc_rg	inc	rng	freq	choose_stim	erasure_value	current_erasure	curr_min	list.spread.nextvalue	curr_mean	curr_max	new_mean	to_h	to_l	smooth_kernel2	rt_index	erasure_RT	right_index	left_index	stim_left_deg	stim_right_deg	erasure_blocks	attentional_control	local_uncertainty	picture.planet.item.1	picture.animatedCircle.item.1	picture.feedback2.items.1	picture.stim.item.1	Earnings	totalEarnings
6.6.1	mac	0	2024-01-22	10:33:06	1	1	1	presscont	1	scanner_sync			5710		0		0	0					1		0	0			7681	5094						0	2		0	0	0	0	0	0		0.6999999999999999556																		0	wind	cloud	blank.png	blank.png	blank.png	fog0.png		0
6.6.1	mac	0	2024-01-22	10:33:06	1	1	1	presscont	1	countdown			1000		0		0	0					1		0	0			7681	5094						0	2		0	0	0	0	0	0		0.6999999999999999556																		0	wind	cloud	blank.png	blank.png	blank.png	fog0.png		0
6.6.1	mac	0	2024-01-22	10:33:06	1	1	1	experiment	2	getValueVector	4230		0		1	1	1	1	1	erasure	erasure		1	1	0	1	1	10	7681	5094	146	1		0	0	0	2	236	0			0				0.6999999999999999556	0	39	39	1		nan	201						146	161	131	221	251	1	wind	cloud	Planet1A.png	Ship1A.png	blank.png	fog0.png		0
6.6.1	mac	0	2024-01-22	10:33:06	1	1	1	experiment	2	getValueVector	4230		0		1	1	1	1	1	erasure	erasure		1	1	0	1	2	11	7681	5094	146	1		0	0	0	2	236	0			0				0.6999999999999999556	0	39	39	1		nan	201						146	161	131	221	251	1	wind	cloud	Planet1A.png	Ship1A.png	blank.png	fog0.png		0
6.6.1	mac	0	2024-01-22	10:33:06	1	1	1	experiment	2	getValueVector	4230		0		1	1	1	1	1	erasure	erasure		1	1	0	1	3	12	7681	5094	146	1		0	0	0	2	236	0			0				0.6999999999999999556	0	39	39	1		nan	201						146	161	131	221	251	1	wind	cloud	Planet1A.png	Ship1A.png	blank.png	fog0.png		0
6.6.1	mac	0	2024-01-22	10:33:06	1	1	1	experiment	2	getValueVector	4230		0		1	1	1	1	1	erasure	erasure		1	1	0	1	4	13	7681	5094	146	1		0	0	0	2	236	0			0				0.6999999999999999556	0	39	39	1		nan	201						146	161	131	221	251	1	wind	cloud	Planet1A.png	Ship1A.png	blank.png	fog0.png		0
6.6.1	mac	0	2024-01-22	10:33:06	1	1	1	experiment	2	getValueVector	4230		0		1	1	1	1	1	erasure	erasure		1	1	0	1	5	14	7681	5094	146	1		0	0	0	2	236	0			0				0.6999999999999999556	0	39	39	1		nan	201						146	161	131	221	251	1	wind	cloud	Planet1A.png	Ship1A.png	blank.png	fog0.png		0
6.6.1	mac	0	2024-01-22	10:33:06	1	1	1	experiment	2	getValueVector	4230		0		1	1	1	1	1	erasure	erasure		1	1	0	1	6	14	7681	5094	146	1		0	0	0	2	236	0			0				0.6999999999999999556	0	39	39	1		nan	201						146	161	131	221	251	1	wind	cloud	Planet1A.png	Ship1A.png	blank.png	fog0.png		0
6.6.1	mac	0	2024-01-22	10:33:06	1	1	1	experiment	2	getValueVector	4230		0		1	1	1	1	1	erasure	erasure		1	1	0	1	7	15	7681	5094	146	1		0	0	0	2	236	0			0				0.6999999999999999556	0	39	39	1		nan	201						146	161	131	221	251	1	wind	cloud	Planet1A.png	Ship1A.png	blank.png	fog0.png		0
6.6.1	mac	0	2024-01-22	10:33:06	1	1	1	experiment	2	getValueVector	4230		0		1	1	1	1	1	erasure	erasure		1	1	0	1	8	16	7681	5094	146	1		0	0	0	2	236	0			0				0.6999999999999999556	0	39	39	1		nan	201						146	161	131	221	251	1	wind	cloud	Planet1A.png	Ship1A.png	blank.png	fog0.png		0
6.6.1	mac	0	2024-01-22	10:33:06	1	1	1	experiment	2	getValueVector	4230		0		1	1	1	1	1	erasure	erasure		1	1	0	1	9	18	7681	5094	146	1		0	0	0	2	236	0			0				0.6999999999999999556	0	39	39	1		nan	201						146	161	131	221	251	1	wind	cloud	Planet1A.png	Ship1A.png	blank.png	fog0.png		0
6.6.1	mac	0	2024-01-22	10:33:06	1	1	1	experiment	2	getValueVector	4230		0		1	1	1	1	1	erasure	erasure		1	1	0	1	10	19	7681	5094	146	1		0	0	0	2	236	0			0				0.6999999999999999556	0	39	39	1		nan	201						146	161	131	221	251	1	wind	cloud	Planet1A.png	Ship1A.png	blank.png	fog0.png		0
6.6.1	mac	0	2024-01-22	10:33:06	1	1	1	experiment	2	getValueVector	4230		0		1	1	1	1	1	erasure	erasure		1	1	0	1	11	20	7681	5094	146	1		0	0	0	2	236	0			0				0.6999999999999999556	0	39	39	1		nan	201						146	161	131	221	251	1	wind	cloud	Planet1A.png	Ship1A.png	blank.png	fog0.png		0
6.6.1	mac	0	2024-01-22	10:33:06	1	1	1	experiment	2	getValueVector	4230		0		1	1	1	1	1	erasure	erasure		1	1	0	1	12	21	7681	5094	146	1		0	0	0	2	236	0			0				0.6999999999999999556	0	39	39	1		nan	201						146	161	131	221	251	1	wind	cloud	Planet1A.png	Ship1A.png	blank.png	fog0.png		0
6.6.1	mac	0	2024-01-22	10:33:06	1	1	1	experiment	2	getValueVector	4230		0		1	1	1	1	1	erasure	erasure		1	1	0	1	13	22	7681	5094	146	1		0	0	0	2	236	0			0				0.6999999999999999556	0	39	39	1		nan	201						146	161	131	221	251	1	wind	cloud	Planet1A.png	Ship1A.png	blank.png	fog0.png		0
6.6.1	mac	0	2024-01-22	10:33:06	1	1	1	experiment	2	getValueVector	4230		0		1	1	1	1	1	erasure	erasure		1	1	0	1	14	23	7681	5094	146	1		0	0	0	2	236	0			0				0.6999999999999999556	0	39	39	1		nan	201						146	161	131	221	251	1	wind	cloud	Planet1A.png	Ship1A.png	blank.png	fog0.png		0
6.6.1	mac	0	2024-01-22	10:33:06	1	1	1	experiment	2	getValueVector	4230		0		1	1	1	1	1	erasure	erasure		1	1	0	1	15	25	7681	5094	146	1		0	0	0	2	236	0			0				0.6999999999999999556	0	39	39	1		nan	201						146	161	131	221	251	1	wind	cloud	Planet1A.png	Ship1A.png	blank.png	fog0.png		0
6.6.1	mac	0	2024-01-22	10:33:06	1	1	1	experiment	2	getValueVector	4230		0		1	1	1	1	1	erasure	erasure		1	1	0	1	16	26	7681	5094	146	1		0	0	0	2	236	0			0				0.6999999999999999556	0	39	39	1		nan	201						146	161	131	221	251	1	wind	cloud	Planet1A.png	Ship1A.png	blank.png	fog0.png		0
6.6.1	mac	0	2024-01-22	10:33:06	1	1	1	experiment	2	getValueVector	4230		0		1	1	1	1	1	erasure	erasure		1	1	0	1	17	28	7681	5094	146	1		0	0	0	2	236	0			0				0.6999999999999999556	0	39	39	1		nan	201						146	161	131	221	251	1	wind	cloud	Planet1A.png	Ship1A.png	blank.png	fog0.png		0
6.6.1	mac	0	2024-01-22	10:33:06	1	1	1	experiment	2	getValueVector	4230		0		1	1	1	1	1	erasure	erasure		1	1	0	1	18	29	7681	5094	146	1		0	0	0	2	236	0			0				0.6999999999999999556	0	39	39	1		nan	201						146	161	131	221	251	1	wind	cloud	Planet1A.png	Ship1A.png	blank.png	fog0.png		0
6.6.1	mac	0	2024-01-22	10:33:06	1	1	1	experiment	2	getValueVector	4230		0		1	1	1	1	1	erasure	erasure		1	1	0	1	19	31	7681	5094	146	1		0	0	0	2	236	0			0				0.6999999999999999556	0	39	39	1		nan	201						146	161	131	221	251	1	wind	cloud	Planet1A.png	Ship1A.png	blank.png	fog0.png		0
6.6.1	mac	0	2024-01-22	10:33:06	1	1	1	experiment	2	getValueVector	4230		0		1	1	1	1	1	erasure	erasure		1	1	0	1	20	32	7681	5094	146	1		0	0	0	2	236	0			0				0.6999999999999999556	0	39	39	1		nan	201						146	161	131	221	251	1	wind	cloud	Planet1A.png	Ship1A.png	blank.png	fog0.png		0
6.6.1	mac	0	2024-01-22	10:33:06	1	1	1	experiment	2	getValueVector	4230		0		1	1	1	1	1	erasure	erasure		1	1	0	1	21	34	7681	5094	146	1		0	0	0	2	236	0			0				0.6999999999999999556	0	39	39	1		nan	201						146	161	131	221	251	1	wind	cloud	Planet1A.png	Ship1A.png	blank.png	fog0.png		0
6.6.1	mac	0	2024-01-22	10:33:06	1	1	1	experiment	2	getValueVector	4230		0		1	1	1	1	1	erasure	erasure		1	1	0	1	22	35	7681	5094	146	1		0	0	0	2	236	0			0				0.6999999999999999556	0	39	39	1		nan	201						146	161	131	221	251	1	wind	cloud	Planet1A.png	Ship1A.png	blank.png	fog0.png		0
6.6.1	mac	0	2024-01-22	10:33:06	1	1	1	experiment	2	getValueVector	4230		0		1	1	1	1	1	erasure	erasure		1	1	0	1	23	37	7681	5094	146	1		0	0	0	2	236	0			0				0.6999999999999999556	0	39	39	1		nan	201						146	161	131	221	251	1	wind	cloud	Planet1A.png	Ship1A.png	blank.png	fog0.png		0
6.6.1	mac	0	2024-01-22	10:33:06	1	1	1	experiment	2	getValueVector	4230		0		1	1	1	1	1	erasure	erasure		1	1	0	1	24	39	7681	5094	146	1		0	0	0	2	236	0			0				0.6999999999999999556	0	39	39	1		nan	201						146	161	131	221	251	1	wind	cloud	Planet1A.png	Ship1A.png	blank.png	fog0.png		0
6.6.1	mac	0	2024-01-22	10:33:06	1	1	1	experiment	2	getValueVector	4230		0		1	1	1	1	1	erasure	erasure		1	1	0	1	25	41	7681	5094	146	1		0	0	0	2	236	0			0				0.6999999999999999556	0	39	39	1		nan	201						146	161	131	221	251	1	wind	cloud	Planet1A.png	Ship1A.png	blank.png	fog0.png		0
6.6.1	mac	0	2024-01-22	10:33:06	1	1	1	experiment	2	getValueVector	4230		0		1	1	1	1	1	erasure	erasure		1	1	0	1	26	42	7681	5094	146	1		0	0	0	2	236	0			0				0.6999999999999999556	0	39	39	1		nan	201						146	161	131	221	251	1	wind	cloud	Planet1A.png	Ship1A.png	blank.png	fog0.png		0
6.6.1	mac	0	2024-01-22	10:33:06	1	1	1	experiment	2	getValueVector	4230		0		1	1	1	1	1	erasure	erasure		1	1	0	1	27	44	7681	5094	146	1		0	0	0	2	236	0			0				0.6999999999999999556	0	39	39	1		nan	201						146	161	131	221	251	1	wind	cloud	Planet1A.png	Ship1A.png	blank.png	fog0.png		0
6.6.1	mac	0	2024-01-22	10:33:06	1	1	1	experiment	2	getValueVector	4230		0		1	1	1	1	1	erasure	erasure		1	1	0	1	28	46	7681	5094	146	1		0	0	0	2	236	0			0				0.6999999999999999556	0	39	39	1		nan	201						146	161	131	221	251	1	wind	cloud	Planet1A.png	Ship1A.png	blank.png	fog0.png		0
6.6.1	mac	0	2024-01-22	10:33:06	1	1	1	experiment	2	getValueVector	4230		0		1	1	1	1	1	erasure	erasure		1	1	0	1	29	48	7681	5094	146	1		0	0	0	2	236	0			0				0.6999999999999999556	0	39	39	1		nan	201						146	161	131	221	251	1	wind	cloud	Planet1A.png	Ship1A.png	blank.png	fog0.png		0
6.6.1	mac	0	2024-01-22	10:33:06	1	1	1	experiment	2	getValueVector	4230		0		1	1	1	1	1	erasure	erasure		1	1	0	1	30	50	7681	5094	146	1		0	0	0	2	236	0			0				0.6999999999999999556	0	39	39	1		nan	201						146	161	131	221	251	1	wind	cloud	Planet1A.png	Ship1A.png	blank.png	fog0.png		0
6.6.1	mac	0	2024-01-22	10:33:06	1	1	1	experiment	2	getValueVector	4230		0		1	1	1	1	1	erasure	erasure		1	1	0	1	31	52	7681	5094	146	1		0	0	0	2	236	0			0				0.6999999999999999556	0	39	39	1		nan	201						146	161	131	221	251	1	wind	cloud	Planet1A.png	Ship1A.png	blank.png	fog0.png		0
6.6.1	mac	0	2024-01-22	10:33:06	1	1	1	experiment	2	getValueVector	4230		0		1	1	1	1	1	erasure	erasure		1	1	0	1	32	54	7681	5094	146	1		0	0	0	2	236	0			0				0.6999999999999999556	0	39	39	1		nan	201						146	161	131	221	251	1	wind	cloud	Planet1A.png	Ship1A.png	blank.png	fog0.png		0
6.6.1	mac	0	2024-01-22	10:33:06	1	1	1	experiment	2	getValueVector	4230		0		1	1	1	1	1	erasure	erasure		1	1	0	1	33	57	7681	5094	146	1		0	0	0	2	236	0			0				0.6999999999999999556	0	39	39	1		nan	201						146	161	131	221	251	1	wind	cloud	Planet1A.png	Ship1A.png	blank.png	fog0.png		0
6.6.1	mac	0	2024-01-22	10:33:06	1	1	1	experiment	2	getValueVector	4230		0		1	1	1	1	1	erasure	erasure		1	1	0	1	34	59	7681	5094	146	1		0	0	0	2	236	0			0				0.6999999999999999556	0	39	39	1		nan	201						146	161	131	221	251	1	wind	cloud	Planet1A.png	Ship1A.png	blank.png	fog0.png		0
6.6.1	mac	0	2024-01-22	10:33:06	1	1	1	experiment	2	getValueVector	4230		0		1	1	1	1	1	erasure	erasure		1	1	0	1	35	61	7681	5094	146	1		0	0	0	2	236	0			0				0.6999999999999999556	0	39	39	1		nan	201						146	161	131	221	251	1	wind	cloud	Planet1A.png	Ship1A.png	blank.png	fog0.png		0
6.6.1	mac	0	2024-01-22	10:33:06	1	1	1	experiment	2	getValueVector	4230		0		1	1	1	1	1	erasure	erasure		1	1	0	1	36	63	7681	5094	146	1		0	0	0	2	236	0			0				0.6999999999999999556	0	39	39	1		nan	201						146	161	131	221	251	1	wind	cloud	Planet1A.png	Ship1A.png	blank.png	fog0.png		0
6.6.1	mac	0	2024-01-22	10:33:06	1	1	1	experiment	2	getValueVector	4230		0		1	1	1	1	1	erasure	erasure		1	1	0	1	37	66	7681	5094	146	1		0	0	0	2	236	0			0				0.6999999999999999556	0	39	39	1		nan	201						146	161	131	221	251	1	wind	cloud	Planet1A.png	Ship1A.png	blank.png	fog0.png		0
6.6.1	mac	0	2024-01-22	10:33:06	1	1	1	experiment	2	getValueVector	4230		0		1	1	1	1	1	erasure	erasure		1	1	0	1	38	68	7681	5094	146	1		0	0	0	2	236	0			0				0.6999999999999999556	0	39	39	1		nan	201						146	161	131	221	251	1	wind	cloud	Planet1A.png	Ship1A.png	blank.png	fog0.png		0
6.6.1	mac	0	2024-01-22	10:33:06	1	1	1	experiment	2	getValueVector	4230		0		1	1	1	1	1	erasure	erasure		1	1	0	1	39	71	7681	5094	146	1		0	0	0	2	236	0			0				0.6999999999999999556	0	39	39	1		nan	201						146	161	131	221	251	1	wind	cloud	Planet1A.png	Ship1A.png	blank.png	fog0.png		0
6.6.1	mac	0	2024-01-22	10:33:06	1	1	1	experiment	2	getValueVector	4230		0		1	1	1	1	1	erasure	erasure		1	1	0	1	40	73	7681	5094	146	1		0	0	0	2	236	0			0				0.6999999999999999556	0	39	39	1		nan	201						146	161	131	221	251	1	wind	cloud	Planet1A.png	Ship1A.png	blank.png	fog0.png		0
6.6.1	mac	0	2024-01-22	10:33:06	1	1	1	experiment	2	getValueVector	4230		0		1	1	1	1	1	erasure	erasure		1	1	0	1	41	76	7681	5094	146	1		0	0	0	2	236	0			0				0.6999999999999999556	0	39	39	1		nan	201						146	161	131	221	251	1	wind	cloud	Planet1A.png	Ship1A.png	blank.png	fog0.png		0
6.6.1	mac	0	2024-01-22	10:33:06	1	1	1	experiment	2	getValueVector	4230		0		1	1	1	1	1	erasure	erasure		1	1	0	1	42	78	7681	5094	146	1		0	0	0	2	236	0			0				0.6999999999999999556	0	39	39	1		nan	201						146	161	131	221	251	1	wind	cloud	Planet1A.png	Ship1A.png	blank.png	fog0.png		0
6.6.1	mac	0	2024-01-22	10:33:06	1	1	1	experiment	2	getValueVector	4230		0		1	1	1	1	1	erasure	erasure		1	1	0	1	43	81	7681	5094	146	1		0	0	0	2	236	0			0				0.6999999999999999556	0	39	39	1		nan	201						146	161	131	221	251	1	wind	cloud	Planet1A.png	Ship1A.png	blank.png	fog0.png		0
6.6.1	mac	0	2024-01-22	10:33:06	1	1	1	experiment	2	getValueVector	4230		0		1	1	1	1	1	erasure	erasure		1	1	0	1	44	84	7681	5094	146	1		0	0	0	2	236	0			0				0.6999999999999999556	0	39	39	1		nan	201						146	161	131	221	251	1	wind	cloud	Planet1A.png	Ship1A.png	blank.png	fog0.png		0
6.6.1	mac	0	2024-01-22	10:33:06	1	1	1	experiment	2	getValueVector	4230		0		1	1	1	1	1	erasure	erasure		1	1	0	1	45	86	7681	5094	146	1		0	0	0	2	236	0			0				0.6999999999999999556	0	39	39	1		nan	201						146	161	131	221	251	1	wind	cloud	Planet1A.png	Ship1A.png	blank.png	fog0.png		0
6.6.1	mac	0	2024-01-22	10:33:06	1	1	1	experiment	2	getValueVector	4230		0		1	1	1	1	1	erasure	erasure		1	1	0	1	46	89	7681	5094	146	1		0	0	0	2	236	0			0				0.6999999999999999556	0	39	39	1		nan	201						146	161	131	221	251	1	wind	cloud	Planet1A.png	Ship1A.png	blank.png	fog0.png		0
6.6.1	mac	0	2024-01-22	10:33:06	1	1	1	experiment	2	getValueVector	4230		0		1	1	1	1	1	erasure	erasure		1	1	0	1	47	92	7681	5094	146	1		0	0	0	2	236	0			0				0.6999999999999999556	0	39	39	1		nan	201						146	161	131	221	251	1	wind	cloud	Planet1A.png	Ship1A.png	blank.png	fog0.png		0
6.6.1	mac	0	2024-01-22	10:33:06	1	1	1	experiment	2	getValueVector	4230		0		1	1	1	1	1	erasure	erasure		1	1	0	1	48	95	7681	5094	146	1		0	0	0	2	236	0			0				0.6999999999999999556	0	39	39	1		nan	201						146	161	131	221	251	1	wind	cloud	Planet1A.png	Ship1A.png	blank.png	fog0.png		0
6.6.1	mac	0	2024-01-22	10:33:06	1	1	1	experiment	2	getValueVector	4230		0		1	1	1	1	1	erasure	erasure		1	1	0	1	49	98	7681	5094	146	1		0	0	0	2	236	0			0				0.6999999999999999556	0	39	39	1		nan	201						146	161	131	221	251	1	wind	cloud	Planet1A.png	Ship1A.png	blank.png	fog0.png		0
6.6.1	mac	0	2024-01-22	10:33:06	1	1	1	experiment	2	getValueVector	4230		0		1	1	1	1	1	erasure	erasure		1	1	0	1	50	100	7681	5094	146	1		0	0	0	2	236	0			0				0.6999999999999999556	0	39	39	1		nan	201						146	161	131	221	251	1	wind	cloud	Planet1A.png	Ship1A.png	blank.png	fog0.png		0
6.6.1	mac	0	2024-01-22	10:33:06	1	1	1	experiment	2	getValueVector	4230		0		1	1	1	1	1	erasure	erasure		1	1	0	1	51	103	7681	5094	146	1		0	0	0	2	236	0			0				0.6999999999999999556	0	39	39	1		nan	201						146	161	131	221	251	1	wind	cloud	Planet1A.png	Ship1A.png	blank.png	fog0.png		0
6.6.1	mac	0	2024-01-22	10:33:06	1	1	1	experiment	2	getValueVector	4230		0		1	1	1	1	1	erasure	erasure		1	1	0	1	52	106	7681	5094	146	1		0	0	0	2	236	0			0				0.6999999999999999556	0	39	39	1		nan	201						146	161	131	221	251	1	wind	cloud	Planet1A.png	Ship1A.png	blank.png	fog0.png		0
6.6.1	mac	0	2024-01-22	10:33:06	1	1	1	experiment	2	getValueVector	4230		0		1	1	1	1	1	erasure	erasure		1	1	0	1	53	109	7681	5094	146	1		0	0	0	2	236	0			0				0.6999999999999999556	0	39	39	1		nan	201						146	161	131	221	251	1	wind	cloud	Planet1A.png	Ship1A.png	blank.png	fog0.png		0
6.6.1	mac	0	2024-01-22	10:33:06	1	1	1	experiment	2	getValueVector	4230		0		1	1	1	1	1	erasure	erasure		1	1	0	1	54	112	7681	5094	146	1		0	0	0	2	236	0			0				0.6999999999999999556	0	39	39	1		nan	201						146	161	131	221	251	1	wind	cloud	Planet1A.png	Ship1A.png	blank.png	fog0.png		0
6.6.1	mac	0	2024-01-22	10:33:06	1	1	1	experiment	2	getValueVector	4230		0		1	1	1	1	1	erasure	erasure		1	1	0	1	55	115	7681	5094	146	1		0	0	0	2	236	0			0				0.6999999999999999556	0	39	39	1		nan	201						146	161	131	221	251	1	wind	cloud	Planet1A.png	Ship1A.png	blank.png	fog0.png		0
6.6.1	mac	0	2024-01-22	10:33:06	1	1	1	experiment	2	getValueVector	4230		0		1	1	1	1	1	erasure	erasure		1	1	0	1	56	118	7681	5094	146	1		0	0	0	2	236	0			0				0.6999999999999999556	0	39	39	1		nan	201						146	161	131	221	251	1	wind	cloud	Planet1A.png	Ship1A.png	blank.png	fog0.png		0
6.6.1	mac	0	2024-01-22	10:33:06	1	1	1	experiment	2	getValueVector	4230		0		1	1	1	1	1	erasure	erasure		1	1	0	1	57	121	7681	5094	146	1		0	0	0	2	236	0			0				0.6999999999999999556	0	39	39	1		nan	201						146	161	131	221	251	1	wind	cloud	Planet1A.png	Ship1A.png	blank.png	fog0.png		0
6.6.1	mac	0	2024-01-22	10:33:06	1	1	1	experiment	2	getValueVector	4230		0		1	1	1	1	1	erasure	erasure		1	1	0	1	58	125	7681	5094	146	1		0	0	0	2	236	0			0				0.6999999999999999556	0	39	39	1		nan	201						146	161	131	221	251	1	wind	cloud	Planet1A.png	Ship1A.png	blank.png	fog0.png		0
6.6.1	mac	0	2024-01-22	10:33:06	1	1	1	experiment	2	getValueVector	4230		0		1	1	1	1	1	erasure	erasure		1	1	0	1	59	128	7681	5094	146	1		0	0	0	2	236	0			0				0.6999999999999999556	0	39	39	1		nan	201						146	161	131	221	251	1	wind	cloud	Planet1A.png	Ship1A.png	blank.png	fog0.png		0
6.6.1	mac	0	2024-01-22	10:33:06	1	1	1	experiment	2	getValueVector	4230		0		1	1	1	1	1	erasure	erasure		1	1	0	1	60	131	7681	5094	146	1		0	0	0	2	236	0			0				0.6999999999999999556	0	39	39	1		nan	201						146	161	131	221	251	1	wind	cloud	Planet1A.png	Ship1A.png	blank.png	fog0.png		0
6.6.1	mac	0	2024-01-22	10:33:06	1	1	1	experiment	2	getValueVector	4230		0		1	1	1	1	1	erasure	erasure		1	1	0	1	61	134	7681	5094	146	1		0	0	0	2	236	0			0				0.6999999999999999556	0	39	39	1		nan	201						146	161	131	221	251	1	wind	cloud	Planet1A.png	Ship1A.png	blank.png	fog0.png		0
6.6.1	mac	0	2024-01-22	10:33:06	1	1	1	experiment	2	getValueVector	4230		0		1	1	1	1	1	erasure	erasure		1	1	0	1	62	137	7681	5094	146	1		0	0	0	2	236	0			0				0.6999999999999999556	0	39	39	1		nan	201						146	161	131	221	251	1	wind	cloud	Planet1A.png	Ship1A.png	blank.png	fog0.png		0
6.6.1	mac	0	2024-01-22	10:33:06	1	1	1	experiment	2	getValueVector	4230		0		1	1	1	1	1	erasure	erasure		1	1	0	1	63	140	7681	5094	146	1		0	0	0	2	236	0			0				0.6999999999999999556	0	39	39	1		nan	201						146	161	131	221	251	1	wind	cloud	Planet1A.png	Ship1A.png	blank.png	fog0.png		0
6.6.1	mac	0	2024-01-22	10:33:06	1	1	1	experiment	2	getValueVector	4230		0		1	1	1	1	1	erasure	erasure		1	1	0	1	64	143	7681	5094	146	1		0	0	0	2	236	0			0				0.6999999999999999556	0	39	39	1		nan	201						146	161	131	221	251	1	wind	cloud	Planet1A.png	Ship1A.png	blank.png	fog0.png		0
6.6.1	mac	0	2024-01-22	10:33:06	1	1	1	experiment	2	getValueVector	4230		0		1	1	1	1	1	erasure	erasure		1	1	0	1	65	146	7681	5094	146	1		0	0	0	2	236	0			0				0.6999999999999999556	0	39	39	1		nan	201						146	161	131	221	251	1	wind	cloud	Planet1A.png	Ship1A.png	blank.png	fog0.png		0
6.6.1	mac	0	2024-01-22	10:33:06	1	1	1	experiment	2	getValueVector	4230		0		1	1	1	1	1	erasure	erasure		1	1	0	1	66	149	7681	5094	146	1		0	0	0	2	236	0			0				0.6999999999999999556	0	39	39	1		nan	201						146	161	131	221	251	1	wind	cloud	Planet1A.png	Ship1A.png	blank.png	fog0.png		0
6.6.1	mac	0	2024-01-22	10:33:06	1	1	1	experiment	2	getValueVector	4230		0		1	1	1	1	1	erasure	erasure		1	1	0	1	67	152	7681	5094	146	1		0	0	0	2	236	0			0				0.6999999999999999556	0	39	39	1		nan	201						146	161	131	221	251	1	wind	cloud	Planet1A.png	Ship1A.png	blank.png	fog0.png		0
6.6.1	mac	0	2024-01-22	10:33:06	1	1	1	experiment	2	getValueVector	4230		0		1	1	1	1	1	erasure	erasure		1	1	0	1	68	155	7681	5094	146	1		0	0	0	2	236	0			0				0.6999999999999999556	0	39	39	1		nan	201						146	161	131	221	251	1	wind	cloud	Planet1A.png	Ship1A.png	blank.png	fog0.png		0
6.6.1	mac	0	2024-01-22	10:33:06	1	1	1	experiment	2	getValueVector	4230		0		1	1	1	1	1	erasure	erasure		1	1	0	1	69	158	7681	5094	146	1		0	0	0	2	236	0			0				0.6999999999999999556	0	39	39	1		nan	201						146	161	131	221	251	1	wind	cloud	Planet1A.png	Ship1A.png	blank.png	fog0.png		0
6.6.1	mac	0	2024-01-22	10:33:06	1	1	1	experiment	2	getValueVector	4230		0		1	1	1	1	1	erasure	erasure		1	1	0	1	70	160	7681	5094	146	1		0	0	0	2	236	0			0				0.6999999999999999556	0	39	39	1		nan	201						146	161	131	221	251	1	wind	cloud	Planet1A.png	Ship1A.png	blank.png	fog0.png		0
6.6.1	mac	0	2024-01-22	10:33:06	1	1	1	experiment	2	getValueVector	4230		0		1	1	1	1	1	erasure	erasure		1	1	0	1	71	163	7681	5094	146	1		0	0	0	2	236	0			0				0.6999999999999999556	0	39	39	1		nan	201						146	161	131	221	251	1	wind	cloud	Planet1A.png	Ship1A.png	blank.png	fog0.png		0
6.6.1	mac	0	2024-01-22	10:33:06	1	1	1	experiment	2	getValueVector	4230		0		1	1	1	1	1	erasure	erasure		1	1	0	1	72	166	7681	5094	146	1		0	0	0	2	236	0			0				0.6999999999999999556	0	39	39	1		nan	201						146	161	131	221	251	1	wind	cloud	Planet1A.png	Ship1A.png	blank.png	fog0.png		0
6.6.1	mac	0	2024-01-22	10:33:06	1	1	1	experiment	2	getValueVector	4230		0		1	1	1	1	1	erasure	erasure		1	1	0	1	73	169	7681	5094	146	1		0	0	0	2	236	0			0				0.6999999999999999556	0	39	39	1		nan	201						146	161	131	221	251	1	wind	cloud	Planet1A.png	Ship1A.png	blank.png	fog0.png		0
6.6.1	mac	0	2024-01-22	10:33:06	1	1	1	experiment	2	getValueVector	4230		0		1	1	1	1	1	erasure	erasure		1	1	0	1	74	171	7681	5094	146	1		0	0	0	2	236	0			0				0.6999999999999999556	0	39	39	1		nan	201						146	161	131	221	251	1	wind	cloud	Planet1A.png	Ship1A.png	blank.png	fog0.png		0
6.6.1	mac	0	2024-01-22	10:33:06	1	1	1	experiment	2	getValueVector	4230		0		1	1	1	1	1	erasure	erasure		1	1	0	1	75	174	7681	5094	146	1		0	0	0	2	236	0			0				0.6999999999999999556	0	39	39	1		nan	201						146	161	131	221	251	1	wind	cloud	Planet1A.png	Ship1A.png	blank.png	fog0.png		0
6.6.1	mac	0	2024-01-22	10:33:06	1	1	1	experiment	2	getValueVector	4230		0		1	1	1	1	1	erasure	erasure		1	1	0	1	76	176	7681	5094	146	1		0	0	0	2	236	0			0				0.6999999999999999556	0	39	39	1		nan	201						146	161	131	221	251	1	wind	cloud	Planet1A.png	Ship1A.png	blank.png	fog0.png		0
6.6.1	mac	0	2024-01-22	10:33:06	1	1	1	experiment	2	getValueVector	4230		0		1	1	1	1	1	erasure	erasure		1	1	0	1	77	178	7681	5094	146	1		0	0	0	2	236	0			0				0.6999999999999999556	0	39	39	1		nan	201						146	161	131	221	251	1	wind	cloud	Planet1A.png	Ship1A.png	blank.png	fog0.png		0
6.6.1	mac	0	2024-01-22	10:33:06	1	1	1	experiment	2	getValueVector	4230		0		1	1	1	1	1	erasure	erasure		1	1	0	1	78	181	7681	5094	146	1		0	0	0	2	236	0			0				0.6999999999999999556	0	39	39	1		nan	201						146	161	131	221	251	1	wind	cloud	Planet1A.png	Ship1A.png	blank.png	fog0.png		0
6.6.1	mac	0	2024-01-22	10:33:06	1	1	1	experiment	2	getValueVector	4230		0		1	1	1	1	1	erasure	erasure		1	1	0	1	79	183	7681	5094	146	1		0	0	0	2	236	0			0				0.6999999999999999556	0	39	39	1		nan	201						146	161	131	221	251	1	wind	cloud	Planet1A.png	Ship1A.png	blank.png	fog0.png		0
6.6.1	mac	0	2024-01-22	10:33:06	1	1	1	experiment	2	getValueVector	4230		0		1	1	1	1	1	erasure	erasure		1	1	0	1	80	185	7681	5094	146	1		0	0	0	2	236	0			0				0.6999999999999999556	0	39	39	1		nan	201						146	161	131	221	251	1	wind	cloud	Planet1A.png	Ship1A.png	blank.png	fog0.png		0
6.6.1	mac	0	2024-01-22	10:33:06	1	1	1	experiment	2	getValueVector	4230		0		1	1	1	1	1	erasure	erasure		1	1	0	1	81	187	7681	5094	146	1		0	0	0	2	236	0			0				0.6999999999999999556	0	39	39	1		nan	201						146	161	131	221	251	1	wind	cloud	Planet1A.png	Ship1A.png	blank.png	fog0.png		0
6.6.1	mac	0	2024-01-22	10:33:06	1	1	1	experiment	2	getValueVector	4230		0		1	1	1	1	1	erasure	erasure		1	1	0	1	82	189	7681	5094	146	1		0	0	0	2	236	0			0				0.6999999999999999556	0	39	39	1		nan	201						146	161	131	221	251	1	wind	cloud	Planet1A.png	Ship1A.png	blank.png	fog0.png		0
6.6.1	mac	0	2024-01-22	10:33:06	1	1	1	experiment	2	getValueVector	4230		0		1	1	1	1	1	erasure	erasure		1	1	0	1	83	191	7681	5094	146	1		0	0	0	2	236	0			0				0.6999999999999999556	0	39	39	1		nan	201						146	161	131	221	251	1	wind	cloud	Planet1A.png	Ship1A.png	blank.png	fog0.png		0
6.6.1	mac	0	2024-01-22	10:33:06	1	1	1	experiment	2	getValueVector	4230		0		1	1	1	1	1	erasure	erasure		1	1	0	1	84	192	7681	5094	146	1		0	0	0	2	236	0			0				0.6999999999999999556	0	39	39	1		nan	201						146	161	131	221	251	1	wind	cloud	Planet1A.png	Ship1A.png	blank.png	fog0.png		0
6.6.1	mac	0	2024-01-22	10:33:06	1	1	1	experiment	2	getValueVector	4230		0		1	1	1	1	1	erasure	erasure		1	1	0	1	85	194	7681	5094	146	1		0	0	0	2	236	0			0				0.6999999999999999556	0	39	39	1		nan	201						146	161	131	221	251	1	wind	cloud	Planet1A.png	Ship1A.png	blank.png	fog0.png		0
6.6.1	mac	0	2024-01-22	10:33:06	1	1	1	experiment	2	getValueVector	4230		0		1	1	1	1	1	erasure	erasure		1	1	0	1	86	195	7681	5094	146	1		0	0	0	2	236	0			0				0.6999999999999999556	0	39	39	1		nan	201						146	161	131	221	251	1	wind	cloud	Planet1A.png	Ship1A.png	blank.png	fog0.png		0
6.6.1	mac	0	2024-01-22	10:33:06	1	1	1	experiment	2	getValueVector	4230		0		1	1	1	1	1	erasure	erasure		1	1	0	1	87	196	7681	5094	146	1		0	0	0	2	236	0			0				0.6999999999999999556	0	39	39	1		nan	201						146	161	131	221	251	1	wind	cloud	Planet1A.png	Ship1A.png	blank.png	fog0.png		0
6.6.1	mac	0	2024-01-22	10:33:06	1	1	1	experiment	2	getValueVector	4230		0		1	1	1	1	1	erasure	erasure		1	1	0	1	88	197	7681	5094	146	1		0	0	0	2	236	0			0				0.6999999999999999556	0	39	39	1		nan	201						146	161	131	221	251	1	wind	cloud	Planet1A.png	Ship1A.png	blank.png	fog0.png		0
6.6.1	mac	0	2024-01-22	10:33:06	1	1	1	experiment	2	getValueVector	4230		0		1	1	1	1	1	erasure	erasure		1	1	0	1	89	198	7681	5094	146	1		0	0	0	2	236	0			0				0.6999999999999999556	0	39	39	1		nan	201						146	161	131	221	251	1	wind	cloud	Planet1A.png	Ship1A.png	blank.png	fog0.png		0
6.6.1	mac	0	2024-01-22	10:33:06	1	1	1	experiment	2	getValueVector	4230		0		1	1	1	1	1	erasure	erasure		1	1	0	1	90	199	7681	5094	146	1		0	0	0	2	236	0			0				0.6999999999999999556	0	39	39	1		nan	201						146	161	131	221	251	1	wind	cloud	Planet1A.png	Ship1A.png	blank.png	fog0.png		0
6.6.1	mac	0	2024-01-22	10:33:06	1	1	1	experiment	2	getValueVector	4230		0		1	1	1	1	1	erasure	erasure		1	1	0	1	91	200	7681	5094	146	1		0	0	0	2	236	0			0				0.6999999999999999556	0	39	39	1		nan	201						146	161	131	221	251	1	wind	cloud	Planet1A.png	Ship1A.png	blank.png	fog0.png		0
6.6.1	mac	0	2024-01-22	10:33:06	1	1	1	experiment	2	getValueVector	4230		0		1	1	1	1	1	erasure	erasure		1	1	0	1	92	200	7681	5094	146	1		0	0	0	2	236	0			0				0.6999999999999999556	0	39	39	1		nan	201						146	161	131	221	251	1	wind	cloud	Planet1A.png	Ship1A.png	blank.png	fog0.png		0
6.6.1	mac	0	2024-01-22	10:33:06	1	1	1	experiment	2	getValueVector	4230		0		1	1	1	1	1	erasure	erasure		1	1	0	1	93	201	7681	5094	146	1		0	0	0	2	236	0			0				0.6999999999999999556	0	39	39	1		nan	201						146	161	131	221	251	1	wind	cloud	Planet1A.png	Ship1A.png	blank.png	fog0.png		0
6.6.1	mac	0	2024-01-22	10:33:06	1	1	1	experiment	2	getValueVector	4230		0		1	1	1	1	1	erasure	erasure		1	1	0	1	94	201	7681	5094	146	1		0	0	0	2	236	0			0				0.6999999999999999556	0	39	39	1		nan	201						146	161	131	221	251	1	wind	cloud	Planet1A.png	Ship1A.png	blank.png	fog0.png		0
6.6.1	mac	0	2024-01-22	10:33:06	1	1	1	experiment	2	getValueVector	4230		0		1	1	1	1	1	erasure	erasure		1	1	0	1	95	201	7681	5094	146	1		0	0	0	2	236	0			0				0.6999999999999999556	0	39	39	1		nan	201						146	161	131	221	251	1	wind	cloud	Planet1A.png	Ship1A.png	blank.png	fog0.png		0
6.6.1	mac	0	2024-01-22	10:33:06	1	1	1	experiment	2	getValueVector	4230		0		1	1	1	1	1	erasure	erasure		1	1	0	1	96	201	7681	5094	146	1		0	0	0	2	236	0			0				0.6999999999999999556	0	39	39	1		nan	201						146	161	131	221	251	1	wind	cloud	Planet1A.png	Ship1A.png	blank.png	fog0.png		0
6.6.1	mac	0	2024-01-22	10:33:06	1	1	1	experiment	2	getValueVector	4230		0		1	1	1	1	1	erasure	erasure		1	1	0	1	97	201	7681	5094	146	1		0	0	0	2	236	0			0				0.6999999999999999556	0	39	39	1		nan	201						146	161	131	221	251	1	wind	cloud	Planet1A.png	Ship1A.png	blank.png	fog0.png		0
6.6.1	mac	0	2024-01-22	10:33:06	1	1	1	experiment	2	getValueVector	4230		0		1	1	1	1	1	erasure	erasure		1	1	0	1	98	200	7681	5094	146	1		0	0	0	2	236	0			0				0.6999999999999999556	0	39	39	1		nan	201						146	161	131	221	251	1	wind	cloud	Planet1A.png	Ship1A.png	blank.png	fog0.png		0
6.6.1	mac	0	2024-01-22	10:33:06	1	1	1	experiment	2	getValueVector	4230		0		1	1	1	1	1	erasure	erasure		1	1	0	1	99	200	7681	5094	146	1		0	0	0	2	236	0			0				0.6999999999999999556	0	39	39	1		nan	201						146	161	131	221	251	1	wind	cloud	Planet1A.png	Ship1A.png	blank.png	fog0.png		0
6.6.1	mac	0	2024-01-22	10:33:06	1	1	1	experiment	2	getValueVector	4230		0		1	1	1	1	1	erasure	erasure		1	1	0	1	100	199	7681	5094	146	1		0	0	0	2	236	0			0				0.6999999999999999556	0	39	39	1		nan	201						146	161	131	221	251	1	wind	cloud	Planet1A.png	Ship1A.png	blank.png	fog0.png		0
6.6.1	mac	0	2024-01-22	10:33:06	1	1	1	experiment	2	getValueVector	4230		0		1	1	1	1	1	erasure	erasure		1	1	0	1	101	198	7681	5094	146	1		0	0	0	2	236	0			0				0.6999999999999999556	0	39	39	1		nan	201						146	161	131	221	251	1	wind	cloud	Planet1A.png	Ship1A.png	blank.png	fog0.png		0
6.6.1	mac	0	2024-01-22	10:33:06	1	1	1	experiment	2	getValueVector	4230		0		1	1	1	1	1	erasure	erasure		1	1	0	1	102	197	7681	5094	146	1		0	0	0	2	236	0			0				0.6999999999999999556	0	39	39	1		nan	201						146	161	131	221	251	1	wind	cloud	Planet1A.png	Ship1A.png	blank.png	fog0.png		0
6.6.1	mac	0	2024-01-22	10:33:06	1	1	1	experiment	2	getValueVector	4230		0		1	1	1	1	1	erasure	erasure		1	1	0	1	103	196	7681	5094	146	1		0	0	0	2	236	0			0				0.6999999999999999556	0	39	39	1		nan	201						146	161	131	221	251	1	wind	cloud	Planet1A.png	Ship1A.png	blank.png	fog0.png		0
6.6.1	mac	0	2024-01-22	10:33:06	1	1	1	experiment	2	getValueVector	4230		0		1	1	1	1	1	erasure	erasure		1	1	0	1	104	195	7681	5094	146	1		0	0	0	2	236	0			0				0.6999999999999999556	0	39	39	1		nan	201						146	161	131	221	251	1	wind	cloud	Planet1A.png	Ship1A.png	blank.png	fog0.png		0
6.6.1	mac	0	2024-01-22	10:33:06	1	1	1	experiment	2	getValueVector	4230		0		1	1	1	1	1	erasure	erasure		1	1	0	1	105	194	7681	5094	146	1		0	0	0	2	236	0			0				0.6999999999999999556	0	39	39	1		nan	201						146	161	131	221	251	1	wind	cloud	Planet1A.png	Ship1A.png	blank.png	fog0.png		0
6.6.1	mac	0	2024-01-22	10:33:06	1	1	1	experiment	2	getValueVector	4230		0		1	1	1	1	1	erasure	erasure		1	1	0	1	106	192	7681	5094	146	1		0	0	0	2	236	0			0				0.6999999999999999556	0	39	39	1		nan	201						146	161	131	221	251	1	wind	cloud	Planet1A.png	Ship1A.png	blank.png	fog0.png		0
6.6.1	mac	0	2024-01-22	10:33:06	1	1	1	experiment	2	getValueVector	4230		0		1	1	1	1	1	erasure	erasure		1	1	0	1	107	191	7681	5094	146	1		0	0	0	2	236	0			0				0.6999999999999999556	0	39	39	1		nan	201						146	161	131	221	251	1	wind	cloud	Planet1A.png	Ship1A.png	blank.png	fog0.png		0
6.6.1	mac	0	2024-01-22	10:33:06	1	1	1	experiment	2	getValueVector	4230		0		1	1	1	1	1	erasure	erasure		1	1	0	1	108	189	7681	5094	146	1		0	0	0	2	236	0			0				0.6999999999999999556	0	39	39	1		nan	201						146	161	131	221	251	1	wind	cloud	Planet1A.png	Ship1A.png	blank.png	fog0.png		0
6.6.1	mac	0	2024-01-22	10:33:06	1	1	1	experiment	2	getValueVector	4230		0		1	1	1	1	1	erasure	erasure		1	1	0	1	109	187	7681	5094	146	1		0	0	0	2	236	0			0				0.6999999999999999556	0	39	39	1		nan	201						146	161	131	221	251	1	wind	cloud	Planet1A.png	Ship1A.png	blank.png	fog0.png		0
6.6.1	mac	0	2024-01-22	10:33:06	1	1	1	experiment	2	getValueVector	4230		0		1	1	1	1	1	erasure	erasure		1	1	0	1	110	185	7681	5094	146	1		0	0	0	2	236	0			0				0.6999999999999999556	0	39	39	1		nan	201						146	161	131	221	251	1	wind	cloud	Planet1A.png	Ship1A.png	blank.png	fog0.png		0
6.6.1	mac	0	2024-01-22	10:33:06	1	1	1	experiment	2	getValueVector	4230		0		1	1	1	1	1	erasure	erasure		1	1	0	1	111	183	7681	5094	146	1		0	0	0	2	236	0			0				0.6999999999999999556	0	39	39	1		nan	201						146	161	131	221	251	1	wind	cloud	Planet1A.png	Ship1A.png	blank.png	fog0.png		0
6.6.1	mac	0	2024-01-22	10:33:06	1	1	1	experiment	2	getValueVector	4230		0		1	1	1	1	1	erasure	erasure		1	1	0	1	112	181	7681	5094	146	1		0	0	0	2	236	0			0				0.6999999999999999556	0	39	39	1		nan	201						146	161	131	221	251	1	wind	cloud	Planet1A.png	Ship1A.png	blank.png	fog0.png		0
6.6.1	mac	0	2024-01-22	10:33:06	1	1	1	experiment	2	getValueVector	4230		0		1	1	1	1	1	erasure	erasure		1	1	0	1	113	179	7681	5094	146	1		0	0	0	2	236	0			0				0.6999999999999999556	0	39	39	1		nan	201						146	161	131	221	251	1	wind	cloud	Planet1A.png	Ship1A.png	blank.png	fog0.png		0
6.6.1	mac	0	2024-01-22	10:33:06	1	1	1	experiment	2	getValueVector	4230		0		1	1	1	1	1	erasure	erasure		1	1	0	1	114	176	7681	5094	146	1		0	0	0	2	236	0			0				0.6999999999999999556	0	39	39	1		nan	201						146	161	131	221	251	1	wind	cloud	Planet1A.png	Ship1A.png	blank.png	fog0.png		0
6.6.1	mac	0	2024-01-22	10:33:06	1	1	1	experiment	2	getValueVector	4230		0		1	1	1	1	1	erasure	erasure		1	1	0	1	115	174	7681	5094	146	1		0	0	0	2	236	0			0				0.6999999999999999556	0	39	39	1		nan	201						146	161	131	221	251	1	wind	cloud	Planet1A.png	Ship1A.png	blank.png	fog0.png		0
6.6.1	mac	0	2024-01-22	10:33:06	1	1	1	experiment	2	getValueVector	4230		0		1	1	1	1	1	erasure	erasure		1	1	0	1	116	171	7681	5094	146	1		0	0	0	2	236	0			0				0.6999999999999999556	0	39	39	1		nan	201						146	161	131	221	251	1	wind	cloud	Planet1A.png	Ship1A.png	blank.png	fog0.png		0
6.6.1	mac	0	2024-01-22	10:33:06	1	1	1	experiment	2	getValueVector	4230		0		1	1	1	1	1	erasure	erasure		1	1	0	1	117	169	7681	5094	146	1		0	0	0	2	236	0			0				0.6999999999999999556	0	39	39	1		nan	201						146	161	131	221	251	1	wind	cloud	Planet1A.png	Ship1A.png	blank.png	fog0.png		0
6.6.1	mac	0	2024-01-22	10:33:06	1	1	1	experiment	2	getValueVector	4230		0		1	1	1	1	1	erasure	erasure		1	1	0	1	118	166	7681	5094	146	1		0	0	0	2	236	0			0				0.6999999999999999556	0	39	39	1		nan	201						146	161	131	221	251	1	wind	cloud	Planet1A.png	Ship1A.png	blank.png	fog0.png		0
6.6.1	mac	0	2024-01-22	10:33:06	1	1	1	experiment	2	getValueVector	4230		0		1	1	1	1	1	erasure	erasure		1	1	0	1	119	163	7681	5094	146	1		0	0	0	2	236	0			0				0.6999999999999999556	0	39	39	1		nan	201						146	161	131	221	251	1	wind	cloud	Planet1A.png	Ship1A.png	blank.png	fog0.png		0
6.6.1	mac	0	2024-01-22	10:33:06	1	1	1	experiment	2	getValueVector	4230		0		1	1	1	1	1	erasure	erasure		1	1	0	1	120	161	7681	5094	146	1		0	0	0	2	236	0			0				0.6999999999999999556	0	39	39	1		nan	201						146	161	131	221	251	1	wind	cloud	Planet1A.png	Ship1A.png	blank.png	fog0.png		0
6.6.1	mac	0	2024-01-22	10:33:06	1	1	1	experiment	2	getValueVector	4230		0		1	1	1	1	1	erasure	erasure		1	1	0	1	121	158	7681	5094	146	1		0	0	0	2	236	0			0				0.6999999999999999556	0	39	39	1		nan	201						146	161	131	221	251	1	wind	cloud	Planet1A.png	Ship1A.png	blank.png	fog0.png		0
6.6.1	mac	0	2024-01-22	10:33:06	1	1	1	experiment	2	getValueVector	4230		0		1	1	1	1	1	erasure	erasure		1	1	0	1	122	155	7681	5094	146	1		0	0	0	2	236	0			0				0.6999999999999999556	0	39	39	1		nan	201						146	161	131	221	251	1	wind	cloud	Planet1A.png	Ship1A.png	blank.png	fog0.png		0
6.6.1	mac	0	2024-01-22	10:33:06	1	1	1	experiment	2	getValueVector	4230		0		1	1	1	1	1	erasure	erasure		1	1	0	1	123	152	7681	5094	146	1		0	0	0	2	236	0			0				0.6999999999999999556	0	39	39	1		nan	201						146	161	131	221	251	1	wind	cloud	Planet1A.png	Ship1A.png	blank.png	fog0.png		0
6.6.1	mac	0	2024-01-22	10:33:06	1	1	1	experiment	2	getValueVector	4230		0		1	1	1	1	1	erasure	erasure		1	1	0	1	124	149	7681	5094	146	1		0	0	0	2	236	0			0				0.6999999999999999556	0	39	39	1		nan	201						146	161	131	221	251	1	wind	cloud	Planet1A.png	Ship1A.png	blank.png	fog0.png		0
6.6.1	mac	0	2024-01-22	10:33:06	1	1	1	experiment	2	getValueVector	4230		0		1	1	1	1	1	erasure	erasure		1	1	0	1	125	146	7681	5094	146	1		0	0	0	2	236	0			0				0.6999999999999999556	0	39	39	1		nan	201						146	161	131	221	251	1	wind	cloud	Planet1A.png	Ship1A.png	blank.png	fog0.png		0
6.6.1	mac	0	2024-01-22	10:33:06	1	1	1	experiment	2	getValueVector	4230		0		1	1	1	1	1	erasure	erasure		1	1	0	1	126	144	7681	5094	146	1		0	0	0	2	236	0			0				0.6999999999999999556	0	39	39	1		nan	201						146	161	131	221	251	1	wind	cloud	Planet1A.png	Ship1A.png	blank.png	fog0.png		0
6.6.1	mac	0	2024-01-22	10:33:06	1	1	1	experiment	2	getValueVector	4230		0		1	1	1	1	1	erasure	erasure		1	1	0	1	127	141	7681	5094	146	1		0	0	0	2	236	0			0				0.6999999999999999556	0	39	39	1		nan	201						146	161	131	221	251	1	wind	cloud	Planet1A.png	Ship1A.png	blank.png	fog0.png		0
6.6.1	mac	0	2024-01-22	10:33:06	1	1	1	experiment	2	getValueVector	4230		0		1	1	1	1	1	erasure	erasure		1	1	0	1	128	138	7681	5094	146	1		0	0	0	2	236	0			0				0.6999999999999999556	0	39	39	1		nan	201						146	161	131	221	251	1	wind	cloud	Planet1A.png	Ship1A.png	blank.png	fog0.png		0
6.6.1	mac	0	2024-01-22	10:33:06	1	1	1	experiment	2	getValueVector	4230		0		1	1	1	1	1	erasure	erasure		1	1	0	1	129	135	7681	5094	146	1		0	0	0	2	236	0			0				0.6999999999999999556	0	39	39	1		nan	201						146	161	131	221	251	1	wind	cloud	Planet1A.png	Ship1A.png	blank.png	fog0.png		0
6.6.1	mac	0	2024-01-22	10:33:06	1	1	1	experiment	2	getValueVector	4230		0		1	1	1	1	1	erasure	erasure		1	1	0	1	130	132	7681	5094	146	1		0	0	0	2	236	0			0				0.6999999999999999556	0	39	39	1		nan	201						146	161	131	221	251	1	wind	cloud	Planet1A.png	Ship1A.png	blank.png	fog0.png		0
6.6.1	mac	0	2024-01-22	10:33:06	1	1	1	experiment	2	getValueVector	4230		0		1	1	1	1	1	erasure	erasure		1	1	0	1	131	129	7681	5094	146	1		0	0	0	2	236	0			0				0.6999999999999999556	0	39	39	1		nan	201						146	161	131	221	251	1	wind	cloud	Planet1A.png	Ship1A.png	blank.png	fog0.png		0
6.6.1	mac	0	2024-01-22	10:33:06	1	1	1	experiment	2	getValueVector	4230		0		1	1	1	1	1	erasure	erasure		1	1	0	1	132	120.9757037037037008531	7681	5094	146	1		0	0	0	2	236	0			0				0.6999999999999999556	0	39	39	1		nan	201						146	161	131	221	251	1	wind	cloud	Planet1A.png	Ship1A.png	blank.png	fog0.png		0
6.6.1	mac	0	2024-01-22	10:33:06	1	1	1	experiment	2	getValueVector	4230		0		1	1	1	1	1	erasure	erasure		1	1	0	1	133	113.0056296296296238779	7681	5094	146	1		0	0	0	2	236	0			0				0.6999999999999999556	0	39	39	1		nan	201						146	161	131	221	251	1	wind	cloud	Planet1A.png	Ship1A.png	blank.png	fog0.png		0
6.6.1	mac	0	2024-01-22	10:33:06	1	1	1	experiment	2	getValueVector	4230		0		1	1	1	1	1	erasure	erasure		1	1	0	1	134	105.144000000000005457	7681	5094	146	1		0	0	0	2	236	0			0				0.6999999999999999556	0	39	39	1		nan	201						146	161	131	221	251	1	wind	cloud	Planet1A.png	Ship1A.png	blank.png	fog0.png		0
6.6.1	mac	0	2024-01-22	10:33:06	1	1	1	experiment	2	getValueVector	4230		0		1	1	1	1	1	erasure	erasure		1	1	0	1	135	97.4450370370370393402	7681	5094	146	1		0	0	0	2	236	0			0				0.6999999999999999556	0	39	39	1		nan	201						146	161	131	221	251	1	wind	cloud	Planet1A.png	Ship1A.png	blank.png	fog0.png		0
6.6.1	mac	0	2024-01-22	10:33:06	1	1	1	experiment	2	getValueVector	4230		0		1	1	1	1	1	erasure	erasure		1	1	0	1	136	89.9629629629629619103	7681	5094	146	1		0	0	0	2	236	0			0				0.6999999999999999556	0	39	39	1		nan	201						146	161	131	221	251	1	wind	cloud	Planet1A.png	Ship1A.png	blank.png	fog0.png		0
6.6.1	mac	0	2024-01-22	10:33:06	1	1	1	experiment	2	getValueVector	4230		0		1	1	1	1	1	erasure	erasure		1	1	0	1	137	82.7519999999999953388	7681	5094	146	1		0	0	0	2	236	0			0				0.6999999999999999556	0	39	39	1		nan	201						146	161	131	221	251	1	wind	cloud	Planet1A.png	Ship1A.png	blank.png	fog0.png		0
6.6.1	mac	0	2024-01-22	10:33:06	1	1	1	experiment	2	getValueVector	4230		0		1	1	1	1	1	erasure	erasure		1	1	0	1	138	75.8663703703703760084	7681	5094	146	1		0	0	0	2	236	0			0				0.6999999999999999556	0	39	39	1		nan	201						146	161	131	221	251	1	wind	cloud	Planet1A.png	Ship1A.png	blank.png	fog0.png		0
6.6.1	mac	0	2024-01-22	10:33:06	1	1	1	experiment	2	getValueVector	4230		0		1	1	1	1	1	erasure	erasure		1	1	0	1	139	69.360296296296297669	7681	5094	146	1		0	0	0	2	236	0			0				0.6999999999999999556	0	39	39	1		nan	201						146	161	131	221	251	1	wind	cloud	Planet1A.png	Ship1A.png	blank.png	fog0.png		0
6.6.1	mac	0	2024-01-22	10:33:06	1	1	1	experiment	2	getValueVector	4230		0		1	1	1	1	1	erasure	erasure		1	1	0	1	140	63.2880000000000038085	7681	5094	146	1		0	0	0	2	236	0			0				0.6999999999999999556	0	39	39	1		nan	201						146	161	131	221	251	1	wind	cloud	Planet1A.png	Ship1A.png	blank.png	fog0.png		0
6.6.1	mac	0	2024-01-22	10:33:06	1	1	1	experiment	2	getValueVector	4230		0		1	1	1	1	1	erasure	erasure		1	1	0	1	141	57.7037037037037023879	7681	5094	146	1		0	0	0	2	236	0			0				0.6999999999999999556	0	39	39	1		nan	201						146	161	131	221	251	1	wind	cloud	Planet1A.png	Ship1A.png	blank.png	fog0.png		0
6.6.1	mac	0	2024-01-22	10:33:06	1	1	1	experiment	2	getValueVector	4230		0		1	1	1	1	1	erasure	erasure		1	1	0	1	142	52.6616296296296297896	7681	5094	146	1		0	0	0	2	236	0			0				0.6999999999999999556	0	39	39	1		nan	201						146	161	131	221	251	1	wind	cloud	Planet1A.png	Ship1A.png	blank.png	fog0.png		0
6.6.1	mac	0	2024-01-22	10:33:06	1	1	1	experiment	2	getValueVector	4230		0		1	1	1	1	1	erasure	erasure		1	1	0	1	143	48.21600000000000108	7681	5094	146	1		0	0	0	2	236	0			0				0.6999999999999999556	0	39	39	1		nan	201						146	161	131	221	251	1	wind	cloud	Planet1A.png	Ship1A.png	blank.png	fog0.png		0
6.6.1	mac	0	2024-01-22	10:33:06	1	1	1	experiment	2	getValueVector	4230		0		1	1	1	1	1	erasure	erasure		1	1	0	1	144	44.4210370370370384308	7681	5094	146	1		0	0	0	2	236	0			0				0.6999999999999999556	0	39	39	1		nan	201						146	161	131	221	251	1	wind	cloud	Planet1A.png	Ship1A.png	blank.png	fog0.png		0
6.6.1	mac	0	2024-01-22	10:33:06	1	1	1	experiment	2	getValueVector	4230		0		1	1	1	1	1	erasure	erasure		1	1	0	1	145	41.3309629629629640135	7681	5094	146	1		0	0	0	2	236	0			0				0.6999999999999999556	0	39	39	1		nan	201						146	161	131	221	251	1	wind	cloud	Planet1A.png	Ship1A.png	blank.png	fog0.png		0
6.6.1	mac	0	2024-01-22	10:33:06	1	1	1	experiment	2	getValueVector	4230		0		1	1	1	1	1	erasure	erasure		1	1	0	1	146	39	7681	5094	146	1		0	0	0	2	236	0			0				0.6999999999999999556	0	39	39	1		nan	201						146	161	131	221	251	1	wind	cloud	Planet1A.png	Ship1A.png	blank.png	fog0.png		0
6.6.1	mac	0	2024-01-22	10:33:06	1	1	1	experiment	2	getValueVector	4230		0		1	1	1	1	1	erasure	erasure		1	1	0	1	147	37.4642962962962968732	7681	5094	146	1		0	0	0	2	236	0			0				0.6999999999999999556	0	39	39	1		nan	201						146	161	131	221	251	1	wind	cloud	Planet1A.png	Ship1A.png	blank.png	fog0.png		0
6.6.1	mac	0	2024-01-22	10:33:06	1	1	1	experiment	2	getValueVector	4230		0		1	1	1	1	1	erasure	erasure		1	1	0	1	148	36.6877037037037112555	7681	5094	146	1		0	0	0	2	236	0			0				0.6999999999999999556	0	39	39	1		nan	201						146	161	131	221	251	1	wind	cloud	Planet1A.png	Ship1A.png	blank.png	fog0.png		0
6.6.1	mac	0	2024-01-22	10:33:06	1	1	1	experiment	2	getValueVector	4230		0		1	1	1	1	1	erasure	erasure		1	1	0	1	149	36.6160000000000067644	7681	5094	146	1		0	0	0	2	236	0			0				0.6999999999999999556	0	39	39	1		nan	201						146	161	131	221	251	1	wind	cloud	Planet1A.png	Ship1A.png	blank.png	fog0.png		0
6.6.1	mac	0	2024-01-22	10:33:06	1	1	1	experiment	2	getValueVector	4230		0		1	1	1	1	1	erasure	erasure		1	1	0	1	150	37.1949629629629612282	7681	5094	146	1		0	0	0	2	236	0			0				0.6999999999999999556	0	39	39	1		nan	201						146	161	131	221	251	1	wind	cloud	Planet1A.png	Ship1A.png	blank.png	fog0.png		0
6.6.1	mac	0	2024-01-22	10:33:06	1	1	1	experiment	2	getValueVector	4230		0		1	1	1	1	1	erasure	erasure		1	1	0	1	151	38.3703703703703666861	7681	5094	146	1		0	0	0	2	236	0			0				0.6999999999999999556	0	39	39	1		nan	201						146	161	131	221	251	1	wind	cloud	Planet1A.png	Ship1A.png	blank.png	fog0.png		0
6.6.1	mac	0	2024-01-22	10:33:06	1	1	1	experiment	2	getValueVector	4230		0		1	1	1	1	1	erasure	erasure		1	1	0	1	152	40.0880000000000009663	7681	5094	146	1		0	0	0	2	236	0			0				0.6999999999999999556	0	39	39	1		nan	201						146	161	131	221	251	1	wind	cloud	Planet1A.png	Ship1A.png	blank.png	fog0.png		0
6.6.1	mac	0	2024-01-22	10:33:06	1	1	1	experiment	2	getValueVector	4230		0		1	1	1	1	1	erasure	erasure		1	1	0	1	153	42.2936296296296347919	7681	5094	146	1		0	0	0	2	236	0			0				0.6999999999999999556	0	39	39	1		nan	201						146	161	131	221	251	1	wind	cloud	Planet1A.png	Ship1A.png	blank.png	fog0.png		0
6.6.1	mac	0	2024-01-22	10:33:06	1	1	1	experiment	2	getValueVector	4230		0		1	1	1	1	1	erasure	erasure		1	1	0	1	154	44.9330370370370317801	7681	5094	146	1		0	0	0	2	236	0			0				0.6999999999999999556	0	39	39	1		nan	201						146	161	131	221	251	1	wind	cloud	Planet1A.png	Ship1A.png	blank.png	fog0.png		0
6.6.1	mac	0	2024-01-22	10:33:06	1	1	1	experiment	2	getValueVector	4230		0		1	1	1	1	1	erasure	erasure		1	1	0	1	155	47.9520000000000052864	7681	5094	146	1		0	0	0	2	236	0			0				0.6999999999999999556	0	39	39	1		nan	201						146	161	131	221	251	1	wind	cloud	Planet1A.png	Ship1A.png	blank.png	fog0.png		0
6.6.1	mac	0	2024-01-22	10:33:06	1	1	1	experiment	2	getValueVector	4230		0		1	1	1	1	1	erasure	erasure		1	1	0	1	156	51.2962962962962905067	7681	5094	146	1		0	0	0	2	236	0			0				0.6999999999999999556	0	39	39	1		nan	201						146	161	131	221	251	1	wind	cloud	Planet1A.png	Ship1A.png	blank.png	fog0.png		0
6.6.1	mac	0	2024-01-22	10:33:06	1	1	1	experiment	2	getValueVector	4230		0		1	1	1	1	1	erasure	erasure		1	1	0	1	157	54.9117037037037007963	7681	5094	146	1		0	0	0	2	236	0			0				0.6999999999999999556	0	39	39	1		nan	201						146	161	131	221	251	1	wind	cloud	Planet1A.png	Ship1A.png	blank.png	fog0.png		0
6.6.1	mac	0	2024-01-22	10:33:06	1	1	1	experiment	2	getValueVector	4230		0		1	1	1	1	1	erasure	erasure		1	1	0	1	158	58.7440000000000068781	7681	5094	146	1		0	0	0	2	236	0			0				0.6999999999999999556	0	39	39	1		nan	201						146	161	131	221	251	1	wind	cloud	Planet1A.png	Ship1A.png	blank.png	fog0.png		0
6.6.1	mac	0	2024-01-22	10:33:06	1	1	1	experiment	2	getValueVector	4230		0		1	1	1	1	1	erasure	erasure		1	1	0	1	159	62.7389629629629652641	7681	5094	146	1		0	0	0	2	236	0			0				0.6999999999999999556	0	39	39	1		nan	201						146	161	131	221	251	1	wind	cloud	Planet1A.png	Ship1A.png	blank.png	fog0.png		0
6.6.1	mac	0	2024-01-22	10:33:06	1	1	1	experiment	2	getValueVector	4230		0		1	1	1	1	1	erasure	erasure		1	1	0	1	160	66.842370370370360888	7681	5094	146	1		0	0	0	2	236	0			0				0.6999999999999999556	0	39	39	1		nan	201						146	161	131	221	251	1	wind	cloud	Planet1A.png	Ship1A.png	blank.png	fog0.png		0
6.6.1	mac	0	2024-01-22	10:33:06	1	1	1	experiment	2	getValueVector	4230		0		1	1	1	1	1	erasure	erasure		1	1	0	1	161	71	7681	5094	146	1		0	0	0	2	236	0			0				0.6999999999999999556	0	39	39	1		nan	201						146	161	131	221	251	1	wind	cloud	Planet1A.png	Ship1A.png	blank.png	fog0.png		0
6.6.1	mac	0	2024-01-22	10:33:06	1	1	1	experiment	2	getValueVector	4230		0		1	1	1	1	1	erasure	erasure		1	1	0	1	162	70	7681	5094	146	1		0	0	0	2	236	0			0				0.6999999999999999556	0	39	39	1		nan	201						146	161	131	221	251	1	wind	cloud	Planet1A.png	Ship1A.png	blank.png	fog0.png		0
6.6.1	mac	0	2024-01-22	10:33:06	1	1	1	experiment	2	getValueVector	4230		0		1	1	1	1	1	erasure	erasure		1	1	0	1	163	69	7681	5094	146	1		0	0	0	2	236	0			0				0.6999999999999999556	0	39	39	1		nan	201						146	161	131	221	251	1	wind	cloud	Planet1A.png	Ship1A.png	blank.png	fog0.png		0
6.6.1	mac	0	2024-01-22	10:33:06	1	1	1	experiment	2	getValueVector	4230		0		1	1	1	1	1	erasure	erasure		1	1	0	1	164	68	7681	5094	146	1		0	0	0	2	236	0			0				0.6999999999999999556	0	39	39	1		nan	201						146	161	131	221	251	1	wind	cloud	Planet1A.png	Ship1A.png	blank.png	fog0.png		0
6.6.1	mac	0	2024-01-22	10:33:06	1	1	1	experiment	2	getValueVector	4230		0		1	1	1	1	1	erasure	erasure		1	1	0	1	165	68	7681	5094	146	1		0	0	0	2	236	0			0				0.6999999999999999556	0	39	39	1		nan	201						146	161	131	221	251	1	wind	cloud	Planet1A.png	Ship1A.png	blank.png	fog0.png		0
6.6.1	mac	0	2024-01-22	10:33:06	1	1	1	experiment	2	getValueVector	4230		0		1	1	1	1	1	erasure	erasure		1	1	0	1	166	67	7681	5094	146	1		0	0	0	2	236	0			0				0.6999999999999999556	0	39	39	1		nan	201						146	161	131	221	251	1	wind	cloud	Planet1A.png	Ship1A.png	blank.png	fog0.png		0
6.6.1	mac	0	2024-01-22	10:33:06	1	1	1	experiment	2	getValueVector	4230		0		1	1	1	1	1	erasure	erasure		1	1	0	1	167	66	7681	5094	146	1		0	0	0	2	236	0			0				0.6999999999999999556	0	39	39	1		nan	201						146	161	131	221	251	1	wind	cloud	Planet1A.png	Ship1A.png	blank.png	fog0.png		0
6.6.1	mac	0	2024-01-22	10:33:06	1	1	1	experiment	2	getValueVector	4230		0		1	1	1	1	1	erasure	erasure		1	1	0	1	168	66	7681	5094	146	1		0	0	0	2	236	0			0				0.6999999999999999556	0	39	39	1		nan	201						146	161	131	221	251	1	wind	cloud	Planet1A.png	Ship1A.png	blank.png	fog0.png		0
6.6.1	mac	0	2024-01-22	10:33:06	1	1	1	experiment	2	getValueVector	4230		0		1	1	1	1	1	erasure	erasure		1	1	0	1	169	65	7681	5094	146	1		0	0	0	2	236	0			0				0.6999999999999999556	0	39	39	1		nan	201						146	161	131	221	251	1	wind	cloud	Planet1A.png	Ship1A.png	blank.png	fog0.png		0
6.6.1	mac	0	2024-01-22	10:33:06	1	1	1	experiment	2	getValueVector	4230		0		1	1	1	1	1	erasure	erasure		1	1	0	1	170	65	7681	5094	146	1		0	0	0	2	236	0			0				0.6999999999999999556	0	39	39	1		nan	201						146	161	131	221	251	1	wind	cloud	Planet1A.png	Ship1A.png	blank.png	fog0.png		0
6.6.1	mac	0	2024-01-22	10:33:06	1	1	1	experiment	2	getValueVector	4230		0		1	1	1	1	1	erasure	erasure		1	1	0	1	171	64	7681	5094	146	1		0	0	0	2	236	0			0				0.6999999999999999556	0	39	39	1		nan	201						146	161	131	221	251	1	wind	cloud	Planet1A.png	Ship1A.png	blank.png	fog0.png		0
6.6.1	mac	0	2024-01-22	10:33:06	1	1	1	experiment	2	getValueVector	4230		0		1	1	1	1	1	erasure	erasure		1	1	0	1	172	64	7681	5094	146	1		0	0	0	2	236	0			0				0.6999999999999999556	0	39	39	1		nan	201						146	161	131	221	251	1	wind	cloud	Planet1A.png	Ship1A.png	blank.png	fog0.png		0
6.6.1	mac	0	2024-01-22	10:33:06	1	1	1	experiment	2	getValueVector	4230		0		1	1	1	1	1	erasure	erasure		1	1	0	1	173	63	7681	5094	146	1		0	0	0	2	236	0			0				0.6999999999999999556	0	39	39	1		nan	201						146	161	131	221	251	1	wind	cloud	Planet1A.png	Ship1A.png	blank.png	fog0.png		0
6.6.1	mac	0	2024-01-22	10:33:06	1	1	1	experiment	2	getValueVector	4230		0		1	1	1	1	1	erasure	erasure		1	1	0	1	174	63	7681	5094	146	1		0	0	0	2	236	0			0				0.6999999999999999556	0	39	39	1		nan	201						146	161	131	221	251	1	wind	cloud	Planet1A.png	Ship1A.png	blank.png	fog0.png		0
6.6.1	mac	0	2024-01-22	10:33:06	1	1	1	experiment	2	getValueVector	4230		0		1	1	1	1	1	erasure	erasure		1	1	0	1	175	63	7681	5094	146	1		0	0	0	2	236	0			0				0.6999999999999999556	0	39	39	1		nan	201						146	161	131	221	251	1	wind	cloud	Planet1A.png	Ship1A.png	blank.png	fog0.png		0
6.6.1	mac	0	2024-01-22	10:33:06	1	1	1	experiment	2	getValueVector	4230		0		1	1	1	1	1	erasure	erasure		1	1	0	1	176	63	7681	5094	146	1		0	0	0	2	236	0			0				0.6999999999999999556	0	39	39	1		nan	201						146	161	131	221	251	1	wind	cloud	Planet1A.png	Ship1A.png	blank.png	fog0.png		0
6.6.1	mac	0	2024-01-22	10:33:06	1	1	1	experiment	2	getValueVector	4230		0		1	1	1	1	1	erasure	erasure		1	1	0	1	177	62	7681	5094	146	1		0	0	0	2	236	0			0				0.6999999999999999556	0	39	39	1		nan	201						146	161	131	221	251	1	wind	cloud	Planet1A.png	Ship1A.png	blank.png	fog0.png		0
6.6.1	mac	0	2024-01-22	10:33:06	1	1	1	experiment	2	getValueVector	4230		0		1	1	1	1	1	erasure	erasure		1	1	0	1	178	62	7681	5094	146	1		0	0	0	2	236	0			0				0.6999999999999999556	0	39	39	1		nan	201						146	161	131	221	251	1	wind	cloud	Planet1A.png	Ship1A.png	blank.png	fog0.png		0
6.6.1	mac	0	2024-01-22	10:33:06	1	1	1	experiment	2	getValueVector	4230		0		1	1	1	1	1	erasure	erasure		1	1	0	1	179	62	7681	5094	146	1		0	0	0	2	236	0			0				0.6999999999999999556	0	39	39	1		nan	201						146	161	131	221	251	1	wind	cloud	Planet1A.png	Ship1A.png	blank.png	fog0.png		0
6.6.1	mac	0	2024-01-22	10:33:06	1	1	1	experiment	2	getValueVector	4230		0		1	1	1	1	1	erasure	erasure		1	1	0	1	180	62	7681	5094	146	1		0	0	0	2	236	0			0				0.6999999999999999556	0	39	39	1		nan	201						146	161	131	221	251	1	wind	cloud	Planet1A.png	Ship1A.png	blank.png	fog0.png		0
6.6.1	mac	0	2024-01-22	10:33:06	1	1	1	experiment	2	getValueVector	4230		0		1	1	1	1	1	erasure	erasure		1	1	0	1	181	61	7681	5094	146	1		0	0	0	2	236	0			0				0.6999999999999999556	0	39	39	1		nan	201						146	161	131	221	251	1	wind	cloud	Planet1A.png	Ship1A.png	blank.png	fog0.png		0
6.6.1	mac	0	2024-01-22	10:33:06	1	1	1	experiment	2	getValueVector	4230		0		1	1	1	1	1	erasure	erasure		1	1	0	1	182	61	7681	5094	146	1		0	0	0	2	236	0			0				0.6999999999999999556	0	39	39	1		nan	201						146	161	131	221	251	1	wind	cloud	Planet1A.png	Ship1A.png	blank.png	fog0.png		0
6.6.1	mac	0	2024-01-22	10:33:06	1	1	1	experiment	2	getValueVector	4230		0		1	1	1	1	1	erasure	erasure		1	1	0	1	183	61	7681	5094	146	1		0	0	0	2	236	0			0				0.6999999999999999556	0	39	39	1		nan	201						146	161	131	221	251	1	wind	cloud	Planet1A.png	Ship1A.png	blank.png	fog0.png		0
6.6.1	mac	0	2024-01-22	10:33:06	1	1	1	experiment	2	getValueVector	4230		0		1	1	1	1	1	erasure	erasure		1	1	0	1	184	61	7681	5094	146	1		0	0	0	2	236	0			0				0.6999999999999999556	0	39	39	1		nan	201						146	161	131	221	251	1	wind	cloud	Planet1A.png	Ship1A.png	blank.png	fog0.png		0
6.6.1	mac	0	2024-01-22	10:33:06	1	1	1	experiment	2	getValueVector	4230		0		1	1	1	1	1	erasure	erasure		1	1	0	1	185	61	7681	5094	146	1		0	0	0	2	236	0			0				0.6999999999999999556	0	39	39	1		nan	201						146	161	131	221	251	1	wind	cloud	Planet1A.png	Ship1A.png	blank.png	fog0.png		0
6.6.1	mac	0	2024-01-22	10:33:06	1	1	1	experiment	2	getValueVector	4230		0		1	1	1	1	1	erasure	erasure		1	1	0	1	186	61	7681	5094	146	1		0	0	0	2	236	0			0				0.6999999999999999556	0	39	39	1		nan	201						146	161	131	221	251	1	wind	cloud	Planet1A.png	Ship1A.png	blank.png	fog0.png		0
6.6.1	mac	0	2024-01-22	10:33:06	1	1	1	experiment	2	getValueVector	4230		0		1	1	1	1	1	erasure	erasure		1	1	0	1	187	61	7681	5094	146	1		0	0	0	2	236	0			0				0.6999999999999999556	0	39	39	1		nan	201						146	161	131	221	251	1	wind	cloud	Planet1A.png	Ship1A.png	blank.png	fog0.png		0
6.6.1	mac	0	2024-01-22	10:33:06	1	1	1	experiment	2	getValueVector	4230		0		1	1	1	1	1	erasure	erasure		1	1	0	1	188	61	7681	5094	146	1		0	0	0	2	236	0			0				0.6999999999999999556	0	39	39	1		nan	201						146	161	131	221	251	1	wind	cloud	Planet1A.png	Ship1A.png	blank.png	fog0.png		0
6.6.1	mac	0	2024-01-22	10:33:06	1	1	1	experiment	2	getValueVector	4230		0		1	1	1	1	1	erasure	erasure		1	1	0	1	189	61	7681	5094	146	1		0	0	0	2	236	0			0				0.6999999999999999556	0	39	39	1		nan	201						146	161	131	221	251	1	wind	cloud	Planet1A.png	Ship1A.png	blank.png	fog0.png		0
6.6.1	mac	0	2024-01-22	10:33:06	1	1	1	experiment	2	getValueVector	4230		0		1	1	1	1	1	erasure	erasure		1	1	0	1	190	61	7681	5094	146	1		0	0	0	2	236	0			0				0.6999999999999999556	0	39	39	1		nan	201						146	161	131	221	251	1	wind	cloud	Planet1A.png	Ship1A.png	blank.png	fog0.png		0
6.6.1	mac	0	2024-01-22	10:33:06	1	1	1	experiment	2	getValueVector	4230		0		1	1	1	1	1	erasure	erasure		1	1	0	1	191	61	7681	5094	146	1		0	0	0	2	236	0			0				0.6999999999999999556	0	39	39	1		nan	201						146	161	131	221	251	1	wind	cloud	Planet1A.png	Ship1A.png	blank.png	fog0.png		0
6.6.1	mac	0	2024-01-22	10:33:06	1	1	1	experiment	2	getValueVector	4230		0		1	1	1	1	1	erasure	erasure		1	1	0	1	192	60	7681	5094	146	1		0	0	0	2	236	0			0				0.6999999999999999556	0	39	39	1		nan	201						146	161	131	221	251	1	wind	cloud	Planet1A.png	Ship1A.png	blank.png	fog0.png		0
6.6.1	mac	0	2024-01-22	10:33:06	1	1	1	experiment	2	getValueVector	4230		0		1	1	1	1	1	erasure	erasure		1	1	0	1	193	60	7681	5094	146	1		0	0	0	2	236	0			0				0.6999999999999999556	0	39	39	1		nan	201						146	161	131	221	251	1	wind	cloud	Planet1A.png	Ship1A.png	blank.png	fog0.png		0
6.6.1	mac	0	2024-01-22	10:33:06	1	1	1	experiment	2	getValueVector	4230		0		1	1	1	1	1	erasure	erasure		1	1	0	1	194	60	7681	5094	146	1		0	0	0	2	236	0			0				0.6999999999999999556	0	39	39	1		nan	201						146	161	131	221	251	1	wind	cloud	Planet1A.png	Ship1A.png	blank.png	fog0.png		0
6.6.1	mac	0	2024-01-22	10:33:06	1	1	1	experiment	2	getValueVector	4230		0		1	1	1	1	1	erasure	erasure		1	1	0	1	195	60	7681	5094	146	1		0	0	0	2	236	0			0				0.6999999999999999556	0	39	39	1		nan	201						146	161	131	221	251	1	wind	cloud	Planet1A.png	Ship1A.png	blank.png	fog0.png		0
6.6.1	mac	0	2024-01-22	10:33:06	1	1	1	experiment	2	getValueVector	4230		0		1	1	1	1	1	erasure	erasure		1	1	0	1	196	60	7681	5094	146	1		0	0	0	2	236	0			0				0.6999999999999999556	0	39	39	1		nan	201						146	161	131	221	251	1	wind	cloud	Planet1A.png	Ship1A.png	blank.png	fog0.png		0
6.6.1	mac	0	2024-01-22	10:33:06	1	1	1	experiment	2	getValueVector	4230		0		1	1	1	1	1	erasure	erasure		1	1	0	1	197	60	7681	5094	146	1		0	0	0	2	236	0			0				0.6999999999999999556	0	39	39	1		nan	201						146	161	131	221	251	1	wind	cloud	Planet1A.png	Ship1A.png	blank.png	fog0.png		0
6.6.1	mac	0	2024-01-22	10:33:06	1	1	1	experiment	2	getValueVector	4230		0		1	1	1	1	1	erasure	erasure		1	1	0	1	198	60	7681	5094	146	1		0	0	0	2	236	0			0				0.6999999999999999556	0	39	39	1		nan	201						146	161	131	221	251	1	wind	cloud	Planet1A.png	Ship1A.png	blank.png	fog0.png		0
6.6.1	mac	0	2024-01-22	10:33:06	1	1	1	experiment	2	getValueVector	4230		0		1	1	1	1	1	erasure	erasure		1	1	0	1	199	60	7681	5094	146	1		0	0	0	2	236	0			0				0.6999999999999999556	0	39	39	1		nan	201						146	161	131	221	251	1	wind	cloud	Planet1A.png	Ship1A.png	blank.png	fog0.png		0
6.6.1	mac	0	2024-01-22	10:33:06	1	1	1	experiment	2	getValueVector	4230		0		1	1	1	1	1	erasure	erasure		1	1	0	1	200	60	7681	5094	146	1		0	0	0	2	236	0			0				0.6999999999999999556	0	39	39	1		nan	201						146	161	131	221	251	1	wind	cloud	Planet1A.png	Ship1A.png	blank.png	fog0.png		0
6.6.1	mac	0	2024-01-22	10:33:06	1	1	1	experiment	2	getValueVector	4230		0		1	1	1	1	1	erasure	erasure		1	1	0	1	201	60	7681	5094	146	1		0	0	0	2	236	0			0				0.6999999999999999556	0	39	39	1		nan	201						146	161	131	221	251	1	wind	cloud	Planet1A.png	Ship1A.png	blank.png	fog0.png		0
6.6.1	mac	0	2024-01-22	10:33:06	1	1	1	experiment	2	getValueVector	4230		0		1	1	1	1	1	erasure	erasure		1	1	0	1	202	60	7681	5094	146	1		0	0	0	2	236	0			0				0.6999999999999999556	0	39	39	1		nan	201						146	161	131	221	251	1	wind	cloud	Planet1A.png	Ship1A.png	blank.png	fog0.png		0
6.6.1	mac	0	2024-01-22	10:33:06	1	1	1	experiment	2	getValueVector	4230		0		1	1	1	1	1	erasure	erasure		1	1	0	1	203	60	7681	5094	146	1		0	0	0	2	236	0			0				0.6999999999999999556	0	39	39	1		nan	201						146	161	131	221	251	1	wind	cloud	Planet1A.png	Ship1A.png	blank.png	fog0.png		0
6.6.1	mac	0	2024-01-22	10:33:06	1	1	1	experiment	2	getValueVector	4230		0		1	1	1	1	1	erasure	erasure		1	1	0	1	204	60	7681	5094	146	1		0	0	0	2	236	0			0				0.6999999999999999556	0	39	39	1		nan	201						146	161	131	221	251	1	wind	cloud	Planet1A.png	Ship1A.png	blank.png	fog0.png		0
6.6.1	mac	0	2024-01-22	10:33:06	1	1	1	experiment	2	getValueVector	4230		0		1	1	1	1	1	erasure	erasure		1	1	0	1	205	60	7681	5094	146	1		0	0	0	2	236	0			0				0.6999999999999999556	0	39	39	1		nan	201						146	161	131	221	251	1	wind	cloud	Planet1A.png	Ship1A.png	blank.png	fog0.png		0
6.6.1	mac	0	2024-01-22	10:33:06	1	1	1	experiment	2	getValueVector	4230		0		1	1	1	1	1	erasure	erasure		1	1	0	1	206	59	7681	5094	146	1		0	0	0	2	236	0			0				0.6999999999999999556	0	39	39	1		nan	201						146	161	131	221	251	1	wind	cloud	Planet1A.png	Ship1A.png	blank.png	fog0.png		0
6.6.1	mac	0	2024-01-22	10:33:06	1	1	1	experiment	2	getValueVector	4230		0		1	1	1	1	1	erasure	erasure		1	1	0	1	207	59	7681	5094	146	1		0	0	0	2	236	0			0				0.6999999999999999556	0	39	39	1		nan	201						146	161	131	221	251	1	wind	cloud	Planet1A.png	Ship1A.png	blank.png	fog0.png		0
6.6.1	mac	0	2024-01-22	10:33:06	1	1	1	experiment	2	getValueVector	4230		0		1	1	1	1	1	erasure	erasure		1	1	0	1	208	59	7681	5094	146	1		0	0	0	2	236	0			0				0.6999999999999999556	0	39	39	1		nan	201						146	161	131	221	251	1	wind	cloud	Planet1A.png	Ship1A.png	blank.png	fog0.png		0
6.6.1	mac	0	2024-01-22	10:33:06	1	1	1	experiment	2	getValueVector	4230		0		1	1	1	1	1	erasure	erasure		1	1	0	1	209	59	7681	5094	146	1		0	0	0	2	236	0			0				0.6999999999999999556	0	39	39	1		nan	201						146	161	131	221	251	1	wind	cloud	Planet1A.png	Ship1A.png	blank.png	fog0.png		0
6.6.1	mac	0	2024-01-22	10:33:06	1	1	1	experiment	2	getValueVector	4230		0		1	1	1	1	1	erasure	erasure		1	1	0	1	210	59	7681	5094	146	1		0	0	0	2	236	0			0				0.6999999999999999556	0	39	39	1		nan	201						146	161	131	221	251	1	wind	cloud	Planet1A.png	Ship1A.png	blank.png	fog0.png		0
6.6.1	mac	0	2024-01-22	10:33:06	1	1	1	experiment	2	getValueVector	4230		0		1	1	1	1	1	erasure	erasure		1	1	0	1	211	59	7681	5094	146	1		0	0	0	2	236	0			0				0.6999999999999999556	0	39	39	1		nan	201						146	161	131	221	251	1	wind	cloud	Planet1A.png	Ship1A.png	blank.png	fog0.png		0
6.6.1	mac	0	2024-01-22	10:33:06	1	1	1	experiment	2	getValueVector	4230		0		1	1	1	1	1	erasure	erasure		1	1	0	1	212	59	7681	5094	146	1		0	0	0	2	236	0			0				0.6999999999999999556	0	39	39	1		nan	201						146	161	131	221	251	1	wind	cloud	Planet1A.png	Ship1A.png	blank.png	fog0.png		0
6.6.1	mac	0	2024-01-22	10:33:06	1	1	1	experiment	2	getValueVector	4230		0		1	1	1	1	1	erasure	erasure		1	1	0	1	213	58	7681	5094	146	1		0	0	0	2	236	0			0				0.6999999999999999556	0	39	39	1		nan	201						146	161	131	221	251	1	wind	cloud	Planet1A.png	Ship1A.png	blank.png	fog0.png		0
6.6.1	mac	0	2024-01-22	10:33:06	1	1	1	experiment	2	getValueVector	4230		0		1	1	1	1	1	erasure	erasure		1	1	0	1	214	58	7681	5094	146	1		0	0	0	2	236	0			0				0.6999999999999999556	0	39	39	1		nan	201						146	161	131	221	251	1	wind	cloud	Planet1A.png	Ship1A.png	blank.png	fog0.png		0
6.6.1	mac	0	2024-01-22	10:33:06	1	1	1	experiment	2	getValueVector	4230		0		1	1	1	1	1	erasure	erasure		1	1	0	1	215	58	7681	5094	146	1		0	0	0	2	236	0			0				0.6999999999999999556	0	39	39	1		nan	201						146	161	131	221	251	1	wind	cloud	Planet1A.png	Ship1A.png	blank.png	fog0.png		0
6.6.1	mac	0	2024-01-22	10:33:06	1	1	1	experiment	2	getValueVector	4230		0		1	1	1	1	1	erasure	erasure		1	1	0	1	216	58	7681	5094	146	1		0	0	0	2	236	0			0				0.6999999999999999556	0	39	39	1		nan	201						146	161	131	221	251	1	wind	cloud	Planet1A.png	Ship1A.png	blank.png	fog0.png		0
6.6.1	mac	0	2024-01-22	10:33:06	1	1	1	experiment	2	getValueVector	4230		0		1	1	1	1	1	erasure	erasure		1	1	0	1	217	58	7681	5094	146	1		0	0	0	2	236	0			0				0.6999999999999999556	0	39	39	1		nan	201						146	161	131	221	251	1	wind	cloud	Planet1A.png	Ship1A.png	blank.png	fog0.png		0
6.6.1	mac	0	2024-01-22	10:33:06	1	1	1	experiment	2	getValueVector	4230		0		1	1	1	1	1	erasure	erasure		1	1	0	1	218	57	7681	5094	146	1		0	0	0	2	236	0			0				0.6999999999999999556	0	39	39	1		nan	201						146	161	131	221	251	1	wind	cloud	Planet1A.png	Ship1A.png	blank.png	fog0.png		0
6.6.1	mac	0	2024-01-22	10:33:06	1	1	1	experiment	2	getValueVector	4230		0		1	1	1	1	1	erasure	erasure		1	1	0	1	219	57	7681	5094	146	1		0	0	0	2	236	0			0				0.6999999999999999556	0	39	39	1		nan	201						146	161	131	221	251	1	wind	cloud	Planet1A.png	Ship1A.png	blank.png	fog0.png		0
6.6.1	mac	0	2024-01-22	10:33:06	1	1	1	experiment	2	getValueVector	4230		0		1	1	1	1	1	erasure	erasure		1	1	0	1	220	57	7681	5094	146	1		0	0	0	2	236	0			0				0.6999999999999999556	0	39	39	1		nan	201						146	161	131	221	251	1	wind	cloud	Planet1A.png	Ship1A.png	blank.png	fog0.png		0
6.6.1	mac	0	2024-01-22	10:33:06	1	1	1	experiment	2	getValueVector	4230		0		1	1	1	1	1	erasure	erasure		1	1	0	1	221	56	7681	5094	146	1		0	0	0	2	236	0			0				0.6999999999999999556	0	39	39	1		nan	201						146	161	131	221	251	1	wind	cloud	Planet1A.png	Ship1A.png	blank.png	fog0.png		0
6.6.1	mac	0	2024-01-22	10:33:06	1	1	1	experiment	2	getValueVector	4230		0		1	1	1	1	1	erasure	erasure		1	1	0	1	222	56	7681	5094	146	1		0	0	0	2	236	0			0				0.6999999999999999556	0	39	39	1		nan	201						146	161	131	221	251	1	wind	cloud	Planet1A.png	Ship1A.png	blank.png	fog0.png		0
6.6.1	mac	0	2024-01-22	10:33:06	1	1	1	experiment	2	getValueVector	4230		0		1	1	1	1	1	erasure	erasure		1	1	0	1	223	56	7681	5094	146	1		0	0	0	2	236	0			0				0.6999999999999999556	0	39	39	1		nan	201						146	161	131	221	251	1	wind	cloud	Planet1A.png	Ship1A.png	blank.png	fog0.png		0
6.6.1	mac	0	2024-01-22	10:33:06	1	1	1	experiment	2	getValueVector	4230		0		1	1	1	1	1	erasure	erasure		1	1	0	1	224	56	7681	5094	146	1		0	0	0	2	236	0			0				0.6999999999999999556	0	39	39	1		nan	201						146	161	131	221	251	1	wind	cloud	Planet1A.png	Ship1A.png	blank.png	fog0.png		0
6.6.1	mac	0	2024-01-22	10:33:06	1	1	1	experiment	2	getValueVector	4230		0		1	1	1	1	1	erasure	erasure		1	1	0	1	225	55	7681	5094	146	1		0	0	0	2	236	0			0				0.6999999999999999556	0	39	39	1		nan	201						146	161	131	221	251	1	wind	cloud	Planet1A.png	Ship1A.png	blank.png	fog0.png		0
6.6.1	mac	0	2024-01-22	10:33:06	1	1	1	experiment	2	getValueVector	4230		0		1	1	1	1	1	erasure	erasure		1	1	0	1	226	55	7681	5094	146	1		0	0	0	2	236	0			0				0.6999999999999999556	0	39	39	1		nan	201						146	161	131	221	251	1	wind	cloud	Planet1A.png	Ship1A.png	blank.png	fog0.png		0
6.6.1	mac	0	2024-01-22	10:33:06	1	1	1	experiment	2	getValueVector	4230		0		1	1	1	1	1	erasure	erasure		1	1	0	1	227	55	7681	5094	146	1		0	0	0	2	236	0			0				0.6999999999999999556	0	39	39	1		nan	201						146	161	131	221	251	1	wind	cloud	Planet1A.png	Ship1A.png	blank.png	fog0.png		0
6.6.1	mac	0	2024-01-22	10:33:06	1	1	1	experiment	2	getValueVector	4230		0		1	1	1	1	1	erasure	erasure		1	1	0	1	228	54	7681	5094	146	1		0	0	0	2	236	0			0				0.6999999999999999556	0	39	39	1		nan	201						146	161	131	221	251	1	wind	cloud	Planet1A.png	Ship1A.png	blank.png	fog0.png		0
6.6.1	mac	0	2024-01-22	10:33:06	1	1	1	experiment	2	getValueVector	4230		0		1	1	1	1	1	erasure	erasure		1	1	0	1	229	54	7681	5094	146	1		0	0	0	2	236	0			0				0.6999999999999999556	0	39	39	1		nan	201						146	161	131	221	251	1	wind	cloud	Planet1A.png	Ship1A.png	blank.png	fog0.png		0
6.6.1	mac	0	2024-01-22	10:33:06	1	1	1	experiment	2	getValueVector	4230		0		1	1	1	1	1	erasure	erasure		1	1	0	1	230	53	7681	5094	146	1		0	0	0	2	236	0			0				0.6999999999999999556	0	39	39	1		nan	201						146	161	131	221	251	1	wind	cloud	Planet1A.png	Ship1A.png	blank.png	fog0.png		0
6.6.1	mac	0	2024-01-22	10:33:06	1	1	1	experiment	2	getValueVector	4230		0		1	1	1	1	1	erasure	erasure		1	1	0	1	231	53	7681	5094	146	1		0	0	0	2	236	0			0				0.6999999999999999556	0	39	39	1		nan	201						146	161	131	221	251	1	wind	cloud	Planet1A.png	Ship1A.png	blank.png	fog0.png		0
6.6.1	mac	0	2024-01-22	10:33:06	1	1	1	experiment	2	getValueVector	4230		0		1	1	1	1	1	erasure	erasure		1	1	0	1	232	53	7681	5094	146	1		0	0	0	2	236	0			0				0.6999999999999999556	0	39	39	1		nan	201						146	161	131	221	251	1	wind	cloud	Planet1A.png	Ship1A.png	blank.png	fog0.png		0
6.6.1	mac	0	2024-01-22	10:33:06	1	1	1	experiment	2	getValueVector	4230		0		1	1	1	1	1	erasure	erasure		1	1	0	1	233	52	7681	5094	146	1		0	0	0	2	236	0			0				0.6999999999999999556	0	39	39	1		nan	201						146	161	131	221	251	1	wind	cloud	Planet1A.png	Ship1A.png	blank.png	fog0.png		0
6.6.1	mac	0	2024-01-22	10:33:06	1	1	1	experiment	2	getValueVector	4230		0		1	1	1	1	1	erasure	erasure		1	1	0	1	234	52	7681	5094	146	1		0	0	0	2	236	0			0				0.6999999999999999556	0	39	39	1		nan	201						146	161	131	221	251	1	wind	cloud	Planet1A.png	Ship1A.png	blank.png	fog0.png		0
6.6.1	mac	0	2024-01-22	10:33:06	1	1	1	experiment	2	getValueVector	4230		0		1	1	1	1	1	erasure	erasure		1	1	0	1	235	51	7681	5094	146	1		0	0	0	2	236	0			0				0.6999999999999999556	0	39	39	1		nan	201						146	161	131	221	251	1	wind	cloud	Planet1A.png	Ship1A.png	blank.png	fog0.png		0
6.6.1	mac	0	2024-01-22	10:33:06	1	1	1	experiment	2	getValueVector	4230		0		1	1	1	1	1	erasure	erasure		1	1	0	1	236	51	7681	5094	146	1		0	0	0	2	236	0			0				0.6999999999999999556	0	39	39	1		nan	201						146	161	131	221	251	1	wind	cloud	Planet1A.png	Ship1A.png	blank.png	fog0.png		0
6.6.1	mac	0	2024-01-22	10:33:06	1	1	1	experiment	2	getValueVector	4230		0		1	1	1	1	1	erasure	erasure		1	1	0	1	237	50	7681	5094	146	1		0	0	0	2	236	0			0				0.6999999999999999556	0	39	39	1		nan	201						146	161	131	221	251	1	wind	cloud	Planet1A.png	Ship1A.png	blank.png	fog0.png		0
6.6.1	mac	0	2024-01-22	10:33:06	1	1	1	experiment	2	getValueVector	4230		0		1	1	1	1	1	erasure	erasure		1	1	0	1	238	50	7681	5094	146	1		0	0	0	2	236	0			0				0.6999999999999999556	0	39	39	1		nan	201						146	161	131	221	251	1	wind	cloud	Planet1A.png	Ship1A.png	blank.png	fog0.png		0
6.6.1	mac	0	2024-01-22	10:33:06	1	1	1	experiment	2	getValueVector	4230		0		1	1	1	1	1	erasure	erasure		1	1	0	1	239	49	7681	5094	146	1		0	0	0	2	236	0			0				0.6999999999999999556	0	39	39	1		nan	201						146	161	131	221	251	1	wind	cloud	Planet1A.png	Ship1A.png	blank.png	fog0.png		0
6.6.1	mac	0	2024-01-22	10:33:06	1	1	1	experiment	2	getValueVector	4230		0		1	1	1	1	1	erasure	erasure		1	1	0	1	240	49	7681	5094	146	1		0	0	0	2	236	0			0				0.6999999999999999556	0	39	39	1		nan	201						146	161	131	221	251	1	wind	cloud	Planet1A.png	Ship1A.png	blank.png	fog0.png		0
6.6.1	mac	0	2024-01-22	10:33:06	1	1	1	experiment	2	getValueVector	4230		0		1	1	1	1	1	erasure	erasure		1	1	0	1	241	48	7681	5094	146	1		0	0	0	2	236	0			0				0.6999999999999999556	0	39	39	1		nan	201						146	161	131	221	251	1	wind	cloud	Planet1A.png	Ship1A.png	blank.png	fog0.png		0
6.6.1	mac	0	2024-01-22	10:33:06	1	1	1	experiment	2	getValueVector	4230		0		1	1	1	1	1	erasure	erasure		1	1	0	1	242	48	7681	5094	146	1		0	0	0	2	236	0			0				0.6999999999999999556	0	39	39	1		nan	201						146	161	131	221	251	1	wind	cloud	Planet1A.png	Ship1A.png	blank.png	fog0.png		0
6.6.1	mac	0	2024-01-22	10:33:06	1	1	1	experiment	2	getValueVector	4230		0		1	1	1	1	1	erasure	erasure		1	1	0	1	243	47	7681	5094	146	1		0	0	0	2	236	0			0				0.6999999999999999556	0	39	39	1		nan	201						146	161	131	221	251	1	wind	cloud	Planet1A.png	Ship1A.png	blank.png	fog0.png		0
6.6.1	mac	0	2024-01-22	10:33:06	1	1	1	experiment	2	getValueVector	4230		0		1	1	1	1	1	erasure	erasure		1	1	0	1	244	47	7681	5094	146	1		0	0	0	2	236	0			0				0.6999999999999999556	0	39	39	1		nan	201						146	161	131	221	251	1	wind	cloud	Planet1A.png	Ship1A.png	blank.png	fog0.png		0
6.6.1	mac	0	2024-01-22	10:33:06	1	1	1	experiment	2	getValueVector	4230		0		1	1	1	1	1	erasure	erasure		1	1	0	1	245	46	7681	5094	146	1		0	0	0	2	236	0			0				0.6999999999999999556	0	39	39	1		nan	201						146	161	131	221	251	1	wind	cloud	Planet1A.png	Ship1A.png	blank.png	fog0.png		0
6.6.1	mac	0	2024-01-22	10:33:06	1	1	1	experiment	2	getValueVector	4230		0		1	1	1	1	1	erasure	erasure		1	1	0	1	246	45	7681	5094	146	1		0	0	0	2	236	0			0				0.6999999999999999556	0	39	39	1		nan	201						146	161	131	221	251	1	wind	cloud	Planet1A.png	Ship1A.png	blank.png	fog0.png		0
6.6.1	mac	0	2024-01-22	10:33:06	1	1	1	experiment	2	getValueVector	4230		0		1	1	1	1	1	erasure	erasure		1	1	0	1	247	45	7681	5094	146	1		0	0	0	2	236	0			0				0.6999999999999999556	0	39	39	1		nan	201						146	161	131	221	251	1	wind	cloud	Planet1A.png	Ship1A.png	blank.png	fog0.png		0
6.6.1	mac	0	2024-01-22	10:33:06	1	1	1	experiment	2	getValueVector	4230		0		1	1	1	1	1	erasure	erasure		1	1	0	1	248	44	7681	5094	146	1		0	0	0	2	236	0			0				0.6999999999999999556	0	39	39	1		nan	201						146	161	131	221	251	1	wind	cloud	Planet1A.png	Ship1A.png	blank.png	fog0.png		0
6.6.1	mac	0	2024-01-22	10:33:06	1	1	1	experiment	2	getValueVector	4230		0		1	1	1	1	1	erasure	erasure		1	1	0	1	249	44	7681	5094	146	1		0	0	0	2	236	0			0				0.6999999999999999556	0	39	39	1		nan	201						146	161	131	221	251	1	wind	cloud	Planet1A.png	Ship1A.png	blank.png	fog0.png		0
6.6.1	mac	0	2024-01-22	10:33:06	1	1	1	experiment	2	getValueVector	4230		0		1	1	1	1	1	erasure	erasure		1	1	0	1	250	43	7681	5094	146	1		0	0	0	2	236	0			0				0.6999999999999999556	0	39	39	1		nan	201						146	161	131	221	251	1	wind	cloud	Planet1A.png	Ship1A.png	blank.png	fog0.png		0
6.6.1	mac	0	2024-01-22	10:33:06	1	1	1	experiment	2	getValueVector	4230		0		1	1	1	1	1	erasure	erasure		1	1	0	1	251	42	7681	5094	146	1		0	0	0	2	236	0			0				0.6999999999999999556	0	39	39	1		nan	201						146	161	131	221	251	1	wind	cloud	Planet1A.png	Ship1A.png	blank.png	fog0.png		0
6.6.1	mac	0	2024-01-22	10:33:06	1	1	1	experiment	2	getValueVector	4230		0		1	1	1	1	1	erasure	erasure		1	1	0	1	252	42	7681	5094	146	1		0	0	0	2	236	0			0				0.6999999999999999556	0	39	39	1		nan	201						146	161	131	221	251	1	wind	cloud	Planet1A.png	Ship1A.png	blank.png	fog0.png		0
6.6.1	mac	0	2024-01-22	10:33:06	1	1	1	experiment	2	getValueVector	4230		0		1	1	1	1	1	erasure	erasure		1	1	0	1	253	41	7681	5094	146	1		0	0	0	2	236	0			0				0.6999999999999999556	0	39	39	1		nan	201						146	161	131	221	251	1	wind	cloud	Planet1A.png	Ship1A.png	blank.png	fog0.png		0
6.6.1	mac	0	2024-01-22	10:33:06	1	1	1	experiment	2	getValueVector	4230		0		1	1	1	1	1	erasure	erasure		1	1	0	1	254	40	7681	5094	146	1		0	0	0	2	236	0			0				0.6999999999999999556	0	39	39	1		nan	201						146	161	131	221	251	1	wind	cloud	Planet1A.png	Ship1A.png	blank.png	fog0.png		0
6.6.1	mac	0	2024-01-22	10:33:06	1	1	1	experiment	2	getValueVector	4230		0		1	1	1	1	1	erasure	erasure		1	1	0	1	255	40	7681	5094	146	1		0	0	0	2	236	0			0				0.6999999999999999556	0	39	39	1		nan	201						146	161	131	221	251	1	wind	cloud	Planet1A.png	Ship1A.png	blank.png	fog0.png		0
6.6.1	mac	0	2024-01-22	10:33:06	1	1	1	experiment	2	getValueVector	4230		0		1	1	1	1	1	erasure	erasure		1	1	0	1	256	39	7681	5094	146	1		0	0	0	2	236	0			0				0.6999999999999999556	0	39	39	1		nan	201						146	161	131	221	251	1	wind	cloud	Planet1A.png	Ship1A.png	blank.png	fog0.png		0
6.6.1	mac	0	2024-01-22	10:33:06	1	1	1	experiment	2	getValueVector	4230		0		1	1	1	1	1	erasure	erasure		1	1	0	1	257	38	7681	5094	146	1		0	0	0	2	236	0			0				0.6999999999999999556	0	39	39	1		nan	201						146	161	131	221	251	1	wind	cloud	Planet1A.png	Ship1A.png	blank.png	fog0.png		0
6.6.1	mac	0	2024-01-22	10:33:06	1	1	1	experiment	2	getValueVector	4230		0		1	1	1	1	1	erasure	erasure		1	1	0	1	258	38	7681	5094	146	1		0	0	0	2	236	0			0				0.6999999999999999556	0	39	39	1		nan	201						146	161	131	221	251	1	wind	cloud	Planet1A.png	Ship1A.png	blank.png	fog0.png		0
6.6.1	mac	0	2024-01-22	10:33:06	1	1	1	experiment	2	getValueVector	4230		0		1	1	1	1	1	erasure	erasure		1	1	0	1	259	37	7681	5094	146	1		0	0	0	2	236	0			0				0.6999999999999999556	0	39	39	1		nan	201						146	161	131	221	251	1	wind	cloud	Planet1A.png	Ship1A.png	blank.png	fog0.png		0
6.6.1	mac	0	2024-01-22	10:33:06	1	1	1	experiment	2	getValueVector	4230		0		1	1	1	1	1	erasure	erasure		1	1	0	1	260	37	7681	5094	146	1		0	0	0	2	236	0			0				0.6999999999999999556	0	39	39	1		nan	201						146	161	131	221	251	1	wind	cloud	Planet1A.png	Ship1A.png	blank.png	fog0.png		0
6.6.1	mac	0	2024-01-22	10:33:06	1	1	1	experiment	2	getValueVector	4230		0		1	1	1	1	1	erasure	erasure		1	1	0	1	261	36	7681	5094	146	1		0	0	0	2	236	0			0				0.6999999999999999556	0	39	39	1		nan	201						146	161	131	221	251	1	wind	cloud	Planet1A.png	Ship1A.png	blank.png	fog0.png		0
6.6.1	mac	0	2024-01-22	10:33:06	1	1	1	experiment	2	getValueVector	4230		0		1	1	1	1	1	erasure	erasure		1	1	0	1	262	35	7681	5094	146	1		0	0	0	2	236	0			0				0.6999999999999999556	0	39	39	1		nan	201						146	161	131	221	251	1	wind	cloud	Planet1A.png	Ship1A.png	blank.png	fog0.png		0
6.6.1	mac	0	2024-01-22	10:33:06	1	1	1	experiment	2	getValueVector	4230		0		1	1	1	1	1	erasure	erasure		1	1	0	1	263	35	7681	5094	146	1		0	0	0	2	236	0			0				0.6999999999999999556	0	39	39	1		nan	201						146	161	131	221	251	1	wind	cloud	Planet1A.png	Ship1A.png	blank.png	fog0.png		0
6.6.1	mac	0	2024-01-22	10:33:06	1	1	1	experiment	2	getValueVector	4230		0		1	1	1	1	1	erasure	erasure		1	1	0	1	264	34	7681	5094	146	1		0	0	0	2	236	0			0				0.6999999999999999556	0	39	39	1		nan	201						146	161	131	221	251	1	wind	cloud	Planet1A.png	Ship1A.png	blank.png	fog0.png		0
6.6.1	mac	0	2024-01-22	10:33:06	1	1	1	experiment	2	getValueVector	4230		0		1	1	1	1	1	erasure	erasure		1	1	0	1	265	33	7681	5094	146	1		0	0	0	2	236	0			0				0.6999999999999999556	0	39	39	1		nan	201						146	161	131	221	251	1	wind	cloud	Planet1A.png	Ship1A.png	blank.png	fog0.png		0
6.6.1	mac	0	2024-01-22	10:33:06	1	1	1	experiment	2	getValueVector	4230		0		1	1	1	1	1	erasure	erasure		1	1	0	1	266	33	7681	5094	146	1		0	0	0	2	236	0			0				0.6999999999999999556	0	39	39	1		nan	201						146	161	131	221	251	1	wind	cloud	Planet1A.png	Ship1A.png	blank.png	fog0.png		0
6.6.1	mac	0	2024-01-22	10:33:06	1	1	1	experiment	2	getValueVector	4230		0		1	1	1	1	1	erasure	erasure		1	1	0	1	267	32	7681	5094	146	1		0	0	0	2	236	0			0				0.6999999999999999556	0	39	39	1		nan	201						146	161	131	221	251	1	wind	cloud	Planet1A.png	Ship1A.png	blank.png	fog0.png		0
6.6.1	mac	0	2024-01-22	10:33:06	1	1	1	experiment	2	getValueVector	4230		0		1	1	1	1	1	erasure	erasure		1	1	0	1	268	31	7681	5094	146	1		0	0	0	2	236	0			0				0.6999999999999999556	0	39	39	1		nan	201						146	161	131	221	251	1	wind	cloud	Planet1A.png	Ship1A.png	blank.png	fog0.png		0
6.6.1	mac	0	2024-01-22	10:33:06	1	1	1	experiment	2	getValueVector	4230		0		1	1	1	1	1	erasure	erasure		1	1	0	1	269	31	7681	5094	146	1		0	0	0	2	236	0			0				0.6999999999999999556	0	39	39	1		nan	201						146	161	131	221	251	1	wind	cloud	Planet1A.png	Ship1A.png	blank.png	fog0.png		0
6.6.1	mac	0	2024-01-22	10:33:06	1	1	1	experiment	2	getValueVector	4230		0		1	1	1	1	1	erasure	erasure		1	1	0	1	270	30	7681	5094	146	1		0	0	0	2	236	0			0				0.6999999999999999556	0	39	39	1		nan	201						146	161	131	221	251	1	wind	cloud	Planet1A.png	Ship1A.png	blank.png	fog0.png		0
6.6.1	mac	0	2024-01-22	10:33:06	1	1	1	experiment	2	getValueVector	4230		0		1	1	1	1	1	erasure	erasure		1	1	0	1	271	29	7681	5094	146	1		0	0	0	2	236	0			0				0.6999999999999999556	0	39	39	1		nan	201						146	161	131	221	251	1	wind	cloud	Planet1A.png	Ship1A.png	blank.png	fog0.png		0
6.6.1	mac	0	2024-01-22	10:33:06	1	1	1	experiment	2	getValueVector	4230		0		1	1	1	1	1	erasure	erasure		1	1	0	1	272	29	7681	5094	146	1		0	0	0	2	236	0			0				0.6999999999999999556	0	39	39	1		nan	201						146	161	131	221	251	1	wind	cloud	Planet1A.png	Ship1A.png	blank.png	fog0.png		0
6.6.1	mac	0	2024-01-22	10:33:06	1	1	1	experiment	2	getValueVector	4230		0		1	1	1	1	1	erasure	erasure		1	1	0	1	273	28	7681	5094	146	1		0	0	0	2	236	0			0				0.6999999999999999556	0	39	39	1		nan	201						146	161	131	221	251	1	wind	cloud	Planet1A.png	Ship1A.png	blank.png	fog0.png		0
6.6.1	mac	0	2024-01-22	10:33:06	1	1	1	experiment	2	getValueVector	4230		0		1	1	1	1	1	erasure	erasure		1	1	0	1	274	27	7681	5094	146	1		0	0	0	2	236	0			0				0.6999999999999999556	0	39	39	1		nan	201						146	161	131	221	251	1	wind	cloud	Planet1A.png	Ship1A.png	blank.png	fog0.png		0
6.6.1	mac	0	2024-01-22	10:33:06	1	1	1	experiment	2	getValueVector	4230		0		1	1	1	1	1	erasure	erasure		1	1	0	1	275	27	7681	5094	146	1		0	0	0	2	236	0			0				0.6999999999999999556	0	39	39	1		nan	201						146	161	131	221	251	1	wind	cloud	Planet1A.png	Ship1A.png	blank.png	fog0.png		0
6.6.1	mac	0	2024-01-22	10:33:06	1	1	1	experiment	2	getValueVector	4230		0		1	1	1	1	1	erasure	erasure		1	1	0	1	276	26	7681	5094	146	1		0	0	0	2	236	0			0				0.6999999999999999556	0	39	39	1		nan	201						146	161	131	221	251	1	wind	cloud	Planet1A.png	Ship1A.png	blank.png	fog0.png		0
6.6.1	mac	0	2024-01-22	10:33:06	1	1	1	experiment	2	getValueVector	4230		0		1	1	1	1	1	erasure	erasure		1	1	0	1	277	25	7681	5094	146	1		0	0	0	2	236	0			0				0.6999999999999999556	0	39	39	1		nan	201						146	161	131	221	251	1	wind	cloud	Planet1A.png	Ship1A.png	blank.png	fog0.png		0
6.6.1	mac	0	2024-01-22	10:33:06	1	1	1	experiment	2	getValueVector	4230		0		1	1	1	1	1	erasure	erasure		1	1	0	1	278	25	7681	5094	146	1		0	0	0	2	236	0			0				0.6999999999999999556	0	39	39	1		nan	201						146	161	131	221	251	1	wind	cloud	Planet1A.png	Ship1A.png	blank.png	fog0.png		0
6.6.1	mac	0	2024-01-22	10:33:06	1	1	1	experiment	2	getValueVector	4230		0		1	1	1	1	1	erasure	erasure		1	1	0	1	279	24	7681	5094	146	1		0	0	0	2	236	0			0				0.6999999999999999556	0	39	39	1		nan	201						146	161	131	221	251	1	wind	cloud	Planet1A.png	Ship1A.png	blank.png	fog0.png		0
6.6.1	mac	0	2024-01-22	10:33:06	1	1	1	experiment	2	getValueVector	4230		0		1	1	1	1	1	erasure	erasure		1	1	0	1	280	23	7681	5094	146	1		0	0	0	2	236	0			0				0.6999999999999999556	0	39	39	1		nan	201						146	161	131	221	251	1	wind	cloud	Planet1A.png	Ship1A.png	blank.png	fog0.png		0
6.6.1	mac	0	2024-01-22	10:33:06	1	1	1	experiment	2	getValueVector	4230		0		1	1	1	1	1	erasure	erasure		1	1	0	1	281	23	7681	5094	146	1		0	0	0	2	236	0			0				0.6999999999999999556	0	39	39	1		nan	201						146	161	131	221	251	1	wind	cloud	Planet1A.png	Ship1A.png	blank.png	fog0.png		0
6.6.1	mac	0	2024-01-22	10:33:06	1	1	1	experiment	2	getValueVector	4230		0		1	1	1	1	1	erasure	erasure		1	1	0	1	282	22	7681	5094	146	1		0	0	0	2	236	0			0				0.6999999999999999556	0	39	39	1		nan	201						146	161	131	221	251	1	wind	cloud	Planet1A.png	Ship1A.png	blank.png	fog0.png		0
6.6.1	mac	0	2024-01-22	10:33:06	1	1	1	experiment	2	getValueVector	4230		0		1	1	1	1	1	erasure	erasure		1	1	0	1	283	21	7681	5094	146	1		0	0	0	2	236	0			0				0.6999999999999999556	0	39	39	1		nan	201						146	161	131	221	251	1	wind	cloud	Planet1A.png	Ship1A.png	blank.png	fog0.png		0
6.6.1	mac	0	2024-01-22	10:33:06	1	1	1	experiment	2	getValueVector	4230		0		1	1	1	1	1	erasure	erasure		1	1	0	1	284	21	7681	5094	146	1		0	0	0	2	236	0			0				0.6999999999999999556	0	39	39	1		nan	201						146	161	131	221	251	1	wind	cloud	Planet1A.png	Ship1A.png	blank.png	fog0.png		0
6.6.1	mac	0	2024-01-22	10:33:06	1	1	1	experiment	2	getValueVector	4230		0		1	1	1	1	1	erasure	erasure		1	1	0	1	285	20	7681	5094	146	1		0	0	0	2	236	0			0				0.6999999999999999556	0	39	39	1		nan	201						146	161	131	221	251	1	wind	cloud	Planet1A.png	Ship1A.png	blank.png	fog0.png		0
6.6.1	mac	0	2024-01-22	10:33:06	1	1	1	experiment	2	getValueVector	4230		0		1	1	1	1	1	erasure	erasure		1	1	0	1	286	20	7681	5094	146	1		0	0	0	2	236	0			0				0.6999999999999999556	0	39	39	1		nan	201						146	161	131	221	251	1	wind	cloud	Planet1A.png	Ship1A.png	blank.png	fog0.png		0
6.6.1	mac	0	2024-01-22	10:33:06	1	1	1	experiment	2	getValueVector	4230		0		1	1	1	1	1	erasure	erasure		1	1	0	1	287	19	7681	5094	146	1		0	0	0	2	236	0			0				0.6999999999999999556	0	39	39	1		nan	201						146	161	131	221	251	1	wind	cloud	Planet1A.png	Ship1A.png	blank.png	fog0.png		0
6.6.1	mac	0	2024-01-22	10:33:06	1	1	1	experiment	2	getValueVector	4230		0		1	1	1	1	1	erasure	erasure		1	1	0	1	288	18	7681	5094	146	1		0	0	0	2	236	0			0				0.6999999999999999556	0	39	39	1		nan	201						146	161	131	221	251	1	wind	cloud	Planet1A.png	Ship1A.png	blank.png	fog0.png		0
6.6.1	mac	0	2024-01-22	10:33:06	1	1	1	experiment	2	getValueVector	4230		0		1	1	1	1	1	erasure	erasure		1	1	0	1	289	18	7681	5094	146	1		0	0	0	2	236	0			0				0.6999999999999999556	0	39	39	1		nan	201						146	161	131	221	251	1	wind	cloud	Planet1A.png	Ship1A.png	blank.png	fog0.png		0
6.6.1	mac	0	2024-01-22	10:33:06	1	1	1	experiment	2	getValueVector	4230		0		1	1	1	1	1	erasure	erasure		1	1	0	1	290	17	7681	5094	146	1		0	0	0	2	236	0			0				0.6999999999999999556	0	39	39	1		nan	201						146	161	131	221	251	1	wind	cloud	Planet1A.png	Ship1A.png	blank.png	fog0.png		0
6.6.1	mac	0	2024-01-22	10:33:06	1	1	1	experiment	2	getValueVector	4230		0		1	1	1	1	1	erasure	erasure		1	1	0	1	291	16	7681	5094	146	1		0	0	0	2	236	0			0				0.6999999999999999556	0	39	39	1		nan	201						146	161	131	221	251	1	wind	cloud	Planet1A.png	Ship1A.png	blank.png	fog0.png		0
6.6.1	mac	0	2024-01-22	10:33:06	1	1	1	experiment	2	getValueVector	4230		0		1	1	1	1	1	erasure	erasure		1	1	0	1	292	16	7681	5094	146	1		0	0	0	2	236	0			0				0.6999999999999999556	0	39	39	1		nan	201						146	161	131	221	251	1	wind	cloud	Planet1A.png	Ship1A.png	blank.png	fog0.png		0
6.6.1	mac	0	2024-01-22	10:33:06	1	1	1	experiment	2	getValueVector	4230		0		1	1	1	1	1	erasure	erasure		1	1	0	1	293	15	7681	5094	146	1		0	0	0	2	236	0			0				0.6999999999999999556	0	39	39	1		nan	201						146	161	131	221	251	1	wind	cloud	Planet1A.png	Ship1A.png	blank.png	fog0.png		0
6.6.1	mac	0	2024-01-22	10:33:06	1	1	1	experiment	2	getValueVector	4230		0		1	1	1	1	1	erasure	erasure		1	1	0	1	294	15	7681	5094	146	1		0	0	0	2	236	0			0				0.6999999999999999556	0	39	39	1		nan	201						146	161	131	221	251	1	wind	cloud	Planet1A.png	Ship1A.png	blank.png	fog0.png		0
6.6.1	mac	0	2024-01-22	10:33:06	1	1	1	experiment	2	getValueVector	4230		0		1	1	1	1	1	erasure	erasure		1	1	0	1	295	14	7681	5094	146	1		0	0	0	2	236	0			0				0.6999999999999999556	0	39	39	1		nan	201						146	161	131	221	251	1	wind	cloud	Planet1A.png	Ship1A.png	blank.png	fog0.png		0
6.6.1	mac	0	2024-01-22	10:33:06	1	1	1	experiment	2	getValueVector	4230		0		1	1	1	1	1	erasure	erasure		1	1	0	1	296	14	7681	5094	146	1		0	0	0	2	236	0			0				0.6999999999999999556	0	39	39	1		nan	201						146	161	131	221	251	1	wind	cloud	Planet1A.png	Ship1A.png	blank.png	fog0.png		0
6.6.1	mac	0	2024-01-22	10:33:06	1	1	1	experiment	2	getValueVector	4230		0		1	1	1	1	1	erasure	erasure		1	1	0	1	297	13	7681	5094	146	1		0	0	0	2	236	0			0				0.6999999999999999556	0	39	39	1		nan	201						146	161	131	221	251	1	wind	cloud	Planet1A.png	Ship1A.png	blank.png	fog0.png		0
6.6.1	mac	0	2024-01-22	10:33:06	1	1	1	experiment	2	getValueVector	4230		0		1	1	1	1	1	erasure	erasure		1	1	0	1	298	13	7681	5094	146	1		0	0	0	2	236	0			0				0.6999999999999999556	0	39	39	1		nan	201						146	161	131	221	251	1	wind	cloud	Planet1A.png	Ship1A.png	blank.png	fog0.png		0
6.6.1	mac	0	2024-01-22	10:33:06	1	1	1	experiment	2	getValueVector	4230		0		1	1	1	1	1	erasure	erasure		1	1	0	1	299	12	7681	5094	146	1		0	0	0	2	236	0			0				0.6999999999999999556	0	39	39	1		nan	201						146	161	131	221	251	1	wind	cloud	Planet1A.png	Ship1A.png	blank.png	fog0.png		0
6.6.1	mac	0	2024-01-22	10:33:06	1	1	1	experiment	2	getValueVector	4230		0		1	1	1	1	1	erasure	erasure		1	1	0	1	300	11	7681	5094	146	1		0	0	0	2	236	0			0				0.6999999999999999556	0	39	39	1		nan	201						146	161	131	221	251	1	wind	cloud	Planet1A.png	Ship1A.png	blank.png	fog0.png		0
6.6.1	mac	0	2024-01-22	10:33:06	1	1	1	experiment	2	getValueVector	4230		0		1	1	1	1	1	erasure	erasure		1	1	0	1	301	11	7681	5094	146	1		0	0	0	2	236	0			0				0.6999999999999999556	0	39	39	1		nan	201						146	161	131	221	251	1	wind	cloud	Planet1A.png	Ship1A.png	blank.png	fog0.png		0
6.6.1	mac	0	2024-01-22	10:33:06	1	1	1	experiment	2	getValueVector	4230		0		1	1	1	1	1	erasure	erasure		1	1	0	1	302	10	7681	5094	146	1		0	0	0	2	236	0			0				0.6999999999999999556	0	39	39	1		nan	201						146	161	131	221	251	1	wind	cloud	Planet1A.png	Ship1A.png	blank.png	fog0.png		0
6.6.1	mac	0	2024-01-22	10:33:06	1	1	1	experiment	2	getValueVector	4230		0		1	1	1	1	1	erasure	erasure		1	1	0	1	303	10	7681	5094	146	1		0	0	0	2	236	0			0				0.6999999999999999556	0	39	39	1		nan	201						146	161	131	221	251	1	wind	cloud	Planet1A.png	Ship1A.png	blank.png	fog0.png		0
6.6.1	mac	0	2024-01-22	10:33:06	1	1	1	experiment	2	getValueVector	4230		0		1	1	1	1	1	erasure	erasure		1	1	0	1	304	9	7681	5094	146	1		0	0	0	2	236	0			0				0.6999999999999999556	0	39	39	1		nan	201						146	161	131	221	251	1	wind	cloud	Planet1A.png	Ship1A.png	blank.png	fog0.png		0
6.6.1	mac	0	2024-01-22	10:33:06	1	1	1	experiment	2	getValueVector	4230		0		1	1	1	1	1	erasure	erasure		1	1	0	1	305	9	7681	5094	146	1		0	0	0	2	236	0			0				0.6999999999999999556	0	39	39	1		nan	201						146	161	131	221	251	1	wind	cloud	Planet1A.png	Ship1A.png	blank.png	fog0.png		0
6.6.1	mac	0	2024-01-22	10:33:06	1	1	1	experiment	2	getValueVector	4230		0		1	1	1	1	1	erasure	erasure		1	1	0	1	306	8	7681	5094	146	1		0	0	0	2	236	0			0				0.6999999999999999556	0	39	39	1		nan	201						146	161	131	221	251	1	wind	cloud	Planet1A.png	Ship1A.png	blank.png	fog0.png		0
6.6.1	mac	0	2024-01-22	10:33:06	1	1	1	experiment	2	getValueVector	4230		0		1	1	1	1	1	erasure	erasure		1	1	0	1	307	8	7681	5094	146	1		0	0	0	2	236	0			0				0.6999999999999999556	0	39	39	1		nan	201						146	161	131	221	251	1	wind	cloud	Planet1A.png	Ship1A.png	blank.png	fog0.png		0
6.6.1	mac	0	2024-01-22	10:33:06	1	1	1	experiment	2	getValueVector	4230		0		1	1	1	1	1	erasure	erasure		1	1	0	1	308	8	7681	5094	146	1		0	0	0	2	236	0			0				0.6999999999999999556	0	39	39	1		nan	201						146	161	131	221	251	1	wind	cloud	Planet1A.png	Ship1A.png	blank.png	fog0.png		0
6.6.1	mac	0	2024-01-22	10:33:06	1	1	1	experiment	2	getValueVector	4230		0		1	1	1	1	1	erasure	erasure		1	1	0	1	309	7	7681	5094	146	1		0	0	0	2	236	0			0				0.6999999999999999556	0	39	39	1		nan	201						146	161	131	221	251	1	wind	cloud	Planet1A.png	Ship1A.png	blank.png	fog0.png		0
6.6.1	mac	0	2024-01-22	10:33:06	1	1	1	experiment	2	getValueVector	4230		0		1	1	1	1	1	erasure	erasure		1	1	0	1	310	7	7681	5094	146	1		0	0	0	2	236	0			0				0.6999999999999999556	0	39	39	1		nan	201						146	161	131	221	251	1	wind	cloud	Planet1A.png	Ship1A.png	blank.png	fog0.png		0
6.6.1	mac	0	2024-01-22	10:33:06	1	1	1	experiment	2	getValueVector	4230		0		1	1	1	1	1	erasure	erasure		1	1	0	1	311	6	7681	5094	146	1		0	0	0	2	236	0			0				0.6999999999999999556	0	39	39	1		nan	201						146	161	131	221	251	1	wind	cloud	Planet1A.png	Ship1A.png	blank.png	fog0.png		0
6.6.1	mac	0	2024-01-22	10:33:06	1	1	1	experiment	2	getValueVector	4230		0		1	1	1	1	1	erasure	erasure		1	1	0	1	312	6	7681	5094	146	1		0	0	0	2	236	0			0				0.6999999999999999556	0	39	39	1		nan	201						146	161	131	221	251	1	wind	cloud	Planet1A.png	Ship1A.png	blank.png	fog0.png		0
6.6.1	mac	0	2024-01-22	10:33:06	1	1	1	experiment	2	getValueVector	4230		0		1	1	1	1	1	erasure	erasure		1	1	0	1	313	5	7681	5094	146	1		0	0	0	2	236	0			0				0.6999999999999999556	0	39	39	1		nan	201						146	161	131	221	251	1	wind	cloud	Planet1A.png	Ship1A.png	blank.png	fog0.png		0
6.6.1	mac	0	2024-01-22	10:33:06	1	1	1	experiment	2	getValueVector	4230		0		1	1	1	1	1	erasure	erasure		1	1	0	1	314	5	7681	5094	146	1		0	0	0	2	236	0			0				0.6999999999999999556	0	39	39	1		nan	201						146	161	131	221	251	1	wind	cloud	Planet1A.png	Ship1A.png	blank.png	fog0.png		0
6.6.1	mac	0	2024-01-22	10:33:06	1	1	1	experiment	2	getValueVector	4230		0		1	1	1	1	1	erasure	erasure		1	1	0	1	315	5	7681	5094	146	1		0	0	0	2	236	0			0				0.6999999999999999556	0	39	39	1		nan	201						146	161	131	221	251	1	wind	cloud	Planet1A.png	Ship1A.png	blank.png	fog0.png		0
6.6.1	mac	0	2024-01-22	10:33:06	1	1	1	experiment	2	getValueVector	4230		0		1	1	1	1	1	erasure	erasure		1	1	0	1	316	4	7681	5094	146	1		0	0	0	2	236	0			0				0.6999999999999999556	0	39	39	1		nan	201						146	161	131	221	251	1	wind	cloud	Planet1A.png	Ship1A.png	blank.png	fog0.png		0
6.6.1	mac	0	2024-01-22	10:33:06	1	1	1	experiment	2	getValueVector	4230		0		1	1	1	1	1	erasure	erasure		1	1	0	1	317	4	7681	5094	146	1		0	0	0	2	236	0			0				0.6999999999999999556	0	39	39	1		nan	201						146	161	131	221	251	1	wind	cloud	Planet1A.png	Ship1A.png	blank.png	fog0.png		0
6.6.1	mac	0	2024-01-22	10:33:06	1	1	1	experiment	2	getValueVector	4230		0		1	1	1	1	1	erasure	erasure		1	1	0	1	318	4	7681	5094	146	1		0	0	0	2	236	0			0				0.6999999999999999556	0	39	39	1		nan	201						146	161	131	221	251	1	wind	cloud	Planet1A.png	Ship1A.png	blank.png	fog0.png		0
6.6.1	mac	0	2024-01-22	10:33:06	1	1	1	experiment	2	getValueVector	4230		0		1	1	1	1	1	erasure	erasure		1	1	0	1	319	3	7681	5094	146	1		0	0	0	2	236	0			0				0.6999999999999999556	0	39	39	1		nan	201						146	161	131	221	251	1	wind	cloud	Planet1A.png	Ship1A.png	blank.png	fog0.png		0
6.6.1	mac	0	2024-01-22	10:33:06	1	1	1	experiment	2	getValueVector	4230		0		1	1	1	1	1	erasure	erasure		1	1	0	1	320	3	7681	5094	146	1		0	0	0	2	236	0			0				0.6999999999999999556	0	39	39	1		nan	201						146	161	131	221	251	1	wind	cloud	Planet1A.png	Ship1A.png	blank.png	fog0.png		0
6.6.1	mac	0	2024-01-22	10:33:06	1	1	1	experiment	2	getValueVector	4230		0		1	1	1	1	1	erasure	erasure		1	1	0	1	321	3	7681	5094	146	1		0	0	0	2	236	0			0				0.6999999999999999556	0	39	39	1		nan	201						146	161	131	221	251	1	wind	cloud	Planet1A.png	Ship1A.png	blank.png	fog0.png		0
6.6.1	mac	0	2024-01-22	10:33:06	1	1	1	experiment	2	getValueVector	4230		0		1	1	1	1	1	erasure	erasure		1	1	0	1	322	3	7681	5094	146	1		0	0	0	2	236	0			0				0.6999999999999999556	0	39	39	1		nan	201						146	161	131	221	251	1	wind	cloud	Planet1A.png	Ship1A.png	blank.png	fog0.png		0
6.6.1	mac	0	2024-01-22	10:33:06	1	1	1	experiment	2	getValueVector	4230		0		1	1	1	1	1	erasure	erasure		1	1	0	1	323	2	7681	5094	146	1		0	0	0	2	236	0			0				0.6999999999999999556	0	39	39	1		nan	201						146	161	131	221	251	1	wind	cloud	Planet1A.png	Ship1A.png	blank.png	fog0.png		0
6.6.1	mac	0	2024-01-22	10:33:06	1	1	1	experiment	2	getValueVector	4230		0		1	1	1	1	1	erasure	erasure		1	1	0	1	324	2	7681	5094	146	1		0	0	0	2	236	0			0				0.6999999999999999556	0	39	39	1		nan	201						146	161	131	221	251	1	wind	cloud	Planet1A.png	Ship1A.png	blank.png	fog0.png		0
6.6.1	mac	0	2024-01-22	10:33:06	1	1	1	experiment	2	getValueVector	4230		0		1	1	1	1	1	erasure	erasure		1	1	0	1	325	2	7681	5094	146	1		0	0	0	2	236	0			0				0.6999999999999999556	0	39	39	1		nan	201						146	161	131	221	251	1	wind	cloud	Planet1A.png	Ship1A.png	blank.png	fog0.png		0
6.6.1	mac	0	2024-01-22	10:33:06	1	1	1	experiment	2	getValueVector	4230		0		1	1	1	1	1	erasure	erasure		1	1	0	1	326	2	7681	5094	146	1		0	0	0	2	236	0			0				0.6999999999999999556	0	39	39	1		nan	201						146	161	131	221	251	1	wind	cloud	Planet1A.png	Ship1A.png	blank.png	fog0.png		0
6.6.1	mac	0	2024-01-22	10:33:06	1	1	1	experiment	2	getValueVector	4230		0		1	1	1	1	1	erasure	erasure		1	1	0	1	327	2	7681	5094	146	1		0	0	0	2	236	0			0				0.6999999999999999556	0	39	39	1		nan	201						146	161	131	221	251	1	wind	cloud	Planet1A.png	Ship1A.png	blank.png	fog0.png		0
6.6.1	mac	0	2024-01-22	10:33:06	1	1	1	experiment	2	getValueVector	4230		0		1	1	1	1	1	erasure	erasure		1	1	0	1	328	1	7681	5094	146	1		0	0	0	2	236	0			0				0.6999999999999999556	0	39	39	1		nan	201						146	161	131	221	251	1	wind	cloud	Planet1A.png	Ship1A.png	blank.png	fog0.png		0
6.6.1	mac	0	2024-01-22	10:33:06	1	1	1	experiment	2	getValueVector	4230		0		1	1	1	1	1	erasure	erasure		1	1	0	1	329	1	7681	5094	146	1		0	0	0	2	236	0			0				0.6999999999999999556	0	39	39	1		nan	201						146	161	131	221	251	1	wind	cloud	Planet1A.png	Ship1A.png	blank.png	fog0.png		0
6.6.1	mac	0	2024-01-22	10:33:06	1	1	1	experiment	2	getValueVector	4230		0		1	1	1	1	1	erasure	erasure		1	1	0	1	330	1	7681	5094	146	1		0	0	0	2	236	0			0				0.6999999999999999556	0	39	39	1		nan	201						146	161	131	221	251	1	wind	cloud	Planet1A.png	Ship1A.png	blank.png	fog0.png		0
6.6.1	mac	0	2024-01-22	10:33:06	1	1	1	experiment	2	getValueVector	4230		0		1	1	1	1	1	erasure	erasure		1	1	0	1	331	1	7681	5094	146	1		0	0	0	2	236	0			0				0.6999999999999999556	0	39	39	1		nan	201						146	161	131	221	251	1	wind	cloud	Planet1A.png	Ship1A.png	blank.png	fog0.png		0
6.6.1	mac	0	2024-01-22	10:33:06	1	1	1	experiment	2	getValueVector	4230		0		1	1	1	1	1	erasure	erasure		1	1	0	1	332	1	7681	5094	146	1		0	0	0	2	236	0			0				0.6999999999999999556	0	39	39	1		nan	201						146	161	131	221	251	1	wind	cloud	Planet1A.png	Ship1A.png	blank.png	fog0.png		0
6.6.1	mac	0	2024-01-22	10:33:06	1	1	1	experiment	2	getValueVector	4230		0		1	1	1	1	1	erasure	erasure		1	1	0	1	333	1	7681	5094	146	1		0	0	0	2	236	0			0				0.6999999999999999556	0	39	39	1		nan	201						146	161	131	221	251	1	wind	cloud	Planet1A.png	Ship1A.png	blank.png	fog0.png		0
6.6.1	mac	0	2024-01-22	10:33:06	1	1	1	experiment	2	getValueVector	4230		0		1	1	1	1	1	erasure	erasure		1	1	0	1	334	1	7681	5094	146	1		0	0	0	2	236	0			0				0.6999999999999999556	0	39	39	1		nan	201						146	161	131	221	251	1	wind	cloud	Planet1A.png	Ship1A.png	blank.png	fog0.png		0
6.6.1	mac	0	2024-01-22	10:33:06	1	1	1	experiment	2	getValueVector	4230		0		1	1	1	1	1	erasure	erasure		1	1	0	1	335	1	7681	5094	146	1		0	0	0	2	236	0			0				0.6999999999999999556	0	39	39	1		nan	201						146	161	131	221	251	1	wind	cloud	Planet1A.png	Ship1A.png	blank.png	fog0.png		0
6.6.1	mac	0	2024-01-22	10:33:06	1	1	1	experiment	2	getValueVector	4230		0		1	1	1	1	1	erasure	erasure		1	1	0	1	336	1	7681	5094	146	1		0	0	0	2	236	0			0				0.6999999999999999556	0	39	39	1		nan	201						146	161	131	221	251	1	wind	cloud	Planet1A.png	Ship1A.png	blank.png	fog0.png		0
6.6.1	mac	0	2024-01-22	10:33:06	1	1	1	experiment	2	getValueVector	4230		0		1	1	1	1	1	erasure	erasure		1	1	0	1	337	1	7681	5094	146	1		0	0	0	2	236	0			0				0.6999999999999999556	0	39	39	1		nan	201						146	161	131	221	251	1	wind	cloud	Planet1A.png	Ship1A.png	blank.png	fog0.png		0
6.6.1	mac	0	2024-01-22	10:33:06	1	1	1	experiment	2	getValueVector	4230		0		1	1	1	1	1	erasure	erasure		1	1	0	1	338	1	7681	5094	146	1		0	0	0	2	236	0			0				0.6999999999999999556	0	39	39	1		nan	201						146	161	131	221	251	1	wind	cloud	Planet1A.png	Ship1A.png	blank.png	fog0.png		0
6.6.1	mac	0	2024-01-22	10:33:06	1	1	1	experiment	2	getValueVector	4230		0		1	1	1	1	1	erasure	erasure		1	1	0	1	339	1	7681	5094	146	1		0	0	0	2	236	0			0				0.6999999999999999556	0	39	39	1		nan	201						146	161	131	221	251	1	wind	cloud	Planet1A.png	Ship1A.png	blank.png	fog0.png		0
6.6.1	mac	0	2024-01-22	10:33:06	1	1	1	experiment	2	getValueVector	4230		0		1	1	1	1	1	erasure	erasure		1	1	0	1	340	1	7681	5094	146	1		0	0	0	2	236	0			0				0.6999999999999999556	0	39	39	1		nan	201						146	161	131	221	251	1	wind	cloud	Planet1A.png	Ship1A.png	blank.png	fog0.png		0
6.6.1	mac	0	2024-01-22	10:33:06	1	1	1	experiment	2	getValueVector	4230		0		1	1	1	1	1	erasure	erasure		1	1	0	1	341	2	7681	5094	146	1		0	0	0	2	236	0			0				0.6999999999999999556	0	39	39	1		nan	201						146	161	131	221	251	1	wind	cloud	Planet1A.png	Ship1A.png	blank.png	fog0.png		0
6.6.1	mac	0	2024-01-22	10:33:06	1	1	1	experiment	2	getValueVector	4230		0		1	1	1	1	1	erasure	erasure		1	1	0	1	342	2	7681	5094	146	1		0	0	0	2	236	0			0				0.6999999999999999556	0	39	39	1		nan	201						146	161	131	221	251	1	wind	cloud	Planet1A.png	Ship1A.png	blank.png	fog0.png		0
6.6.1	mac	0	2024-01-22	10:33:06	1	1	1	experiment	2	getValueVector	4230		0		1	1	1	1	1	erasure	erasure		1	1	0	1	343	2	7681	5094	146	1		0	0	0	2	236	0			0				0.6999999999999999556	0	39	39	1		nan	201						146	161	131	221	251	1	wind	cloud	Planet1A.png	Ship1A.png	blank.png	fog0.png		0
6.6.1	mac	0	2024-01-22	10:33:06	1	1	1	experiment	2	getValueVector	4230		0		1	1	1	1	1	erasure	erasure		1	1	0	1	344	2	7681	5094	146	1		0	0	0	2	236	0			0				0.6999999999999999556	0	39	39	1		nan	201						146	161	131	221	251	1	wind	cloud	Planet1A.png	Ship1A.png	blank.png	fog0.png		0
6.6.1	mac	0	2024-01-22	10:33:06	1	1	1	experiment	2	getValueVector	4230		0		1	1	1	1	1	erasure	erasure		1	1	0	1	345	2	7681	5094	146	1		0	0	0	2	236	0			0				0.6999999999999999556	0	39	39	1		nan	201						146	161	131	221	251	1	wind	cloud	Planet1A.png	Ship1A.png	blank.png	fog0.png		0
6.6.1	mac	0	2024-01-22	10:33:06	1	1	1	experiment	2	getValueVector	4230		0		1	1	1	1	1	erasure	erasure		1	1	0	1	346	3	7681	5094	146	1		0	0	0	2	236	0			0				0.6999999999999999556	0	39	39	1		nan	201						146	161	131	221	251	1	wind	cloud	Planet1A.png	Ship1A.png	blank.png	fog0.png		0
6.6.1	mac	0	2024-01-22	10:33:06	1	1	1	experiment	2	getValueVector	4230		0		1	1	1	1	1	erasure	erasure		1	1	0	1	347	3	7681	5094	146	1		0	0	0	2	236	0			0				0.6999999999999999556	0	39	39	1		nan	201						146	161	131	221	251	1	wind	cloud	Planet1A.png	Ship1A.png	blank.png	fog0.png		0
6.6.1	mac	0	2024-01-22	10:33:06	1	1	1	experiment	2	getValueVector	4230		0		1	1	1	1	1	erasure	erasure		1	1	0	1	348	3	7681	5094	146	1		0	0	0	2	236	0			0				0.6999999999999999556	0	39	39	1		nan	201						146	161	131	221	251	1	wind	cloud	Planet1A.png	Ship1A.png	blank.png	fog0.png		0
6.6.1	mac	0	2024-01-22	10:33:06	1	1	1	experiment	2	getValueVector	4230		0		1	1	1	1	1	erasure	erasure		1	1	0	1	349	4	7681	5094	146	1		0	0	0	2	236	0			0				0.6999999999999999556	0	39	39	1		nan	201						146	161	131	221	251	1	wind	cloud	Planet1A.png	Ship1A.png	blank.png	fog0.png		0
6.6.1	mac	0	2024-01-22	10:33:06	1	1	1	experiment	2	getValueVector	4230		0		1	1	1	1	1	erasure	erasure		1	1	0	1	350	4	7681	5094	146	1		0	0	0	2	236	0			0				0.6999999999999999556	0	39	39	1		nan	201						146	161	131	221	251	1	wind	cloud	Planet1A.png	Ship1A.png	blank.png	fog0.png		0
