build	computer.platform	computer.touch	date	time	subject	group	sessionid	blockcode	blocknum	trialcode	list.ITI.currentvalue	list.preClockFreeze.currentvalue	latency	list.ISI.currentvalue	block	trialCount	trial	run_trial	block_trial	block_type	trial_type	last_block_type	generate_new_erasure	trial_since_erasure_gen	att_index	era_index	x_final	y_final	ITI_index	seed	list.era_loc.currentvalue	has_erasure	list.att_loc.currentvalue	n_clicks	n_clicks_era_only	timeout_block	timeouts_remain	stim_center_deg	startPos	pos_shifted	rt_shifted	mag	inc_rg	inc	rng	freq	choose_stim	erasure_value	current_erasure	curr_min	list.spread.nextvalue	curr_mean	curr_max	new_mean	to_h	to_l	smooth_kernel2	rt_index	erasure_RT	right_index	left_index	stim_left_deg	stim_right_deg	erasure_blocks	attentional_control	local_uncertainty	picture.planet.item.1	picture.animatedCircle.item.1	picture.feedback2.items.1	picture.stim.item.1	Earnings	totalEarnings
6.6.1	mac	0	2024-01-08	17:20:36	1	1	1	experiment	1	getValueVector			0		1	1	1	1	1	erasure	erasure		1	1	0	1	1	108		152	140	1		0	0	0	2	230	0			0				0.6999999999999999556	0	25	25	1		nan	201						140	155	125	215	245	1	wind	cloud	Planet1A.png	Ship1A.png	blank.png	fog0.png		0
6.6.1	mac	0	2024-01-08	17:20:36	1	1	1	experiment	1	getValueVector			0		1	1	1	1	1	erasure	erasure		1	1	0	1	2	111		152	140	1		0	0	0	2	230	0			0				0.6999999999999999556	0	25	25	1		nan	201						140	155	125	215	245	1	wind	cloud	Planet1A.png	Ship1A.png	blank.png	fog0.png		0
6.6.1	mac	0	2024-01-08	17:20:36	1	1	1	experiment	1	getValueVector			0		1	1	1	1	1	erasure	erasure		1	1	0	1	3	113		152	140	1		0	0	0	2	230	0			0				0.6999999999999999556	0	25	25	1		nan	201						140	155	125	215	245	1	wind	cloud	Planet1A.png	Ship1A.png	blank.png	fog0.png		0
6.6.1	mac	0	2024-01-08	17:20:36	1	1	1	experiment	1	getValueVector			0		1	1	1	1	1	erasure	erasure		1	1	0	1	4	116		152	140	1		0	0	0	2	230	0			0				0.6999999999999999556	0	25	25	1		nan	201						140	155	125	215	245	1	wind	cloud	Planet1A.png	Ship1A.png	blank.png	fog0.png		0
6.6.1	mac	0	2024-01-08	17:20:36	1	1	1	experiment	1	getValueVector			0		1	1	1	1	1	erasure	erasure		1	1	0	1	5	119		152	140	1		0	0	0	2	230	0			0				0.6999999999999999556	0	25	25	1		nan	201						140	155	125	215	245	1	wind	cloud	Planet1A.png	Ship1A.png	blank.png	fog0.png		0
6.6.1	mac	0	2024-01-08	17:20:36	1	1	1	experiment	1	getValueVector			0		1	1	1	1	1	erasure	erasure		1	1	0	1	6	121		152	140	1		0	0	0	2	230	0			0				0.6999999999999999556	0	25	25	1		nan	201						140	155	125	215	245	1	wind	cloud	Planet1A.png	Ship1A.png	blank.png	fog0.png		0
6.6.1	mac	0	2024-01-08	17:20:36	1	1	1	experiment	1	getValueVector			0		1	1	1	1	1	erasure	erasure		1	1	0	1	7	124		152	140	1		0	0	0	2	230	0			0				0.6999999999999999556	0	25	25	1		nan	201						140	155	125	215	245	1	wind	cloud	Planet1A.png	Ship1A.png	blank.png	fog0.png		0
6.6.1	mac	0	2024-01-08	17:20:36	1	1	1	experiment	1	getValueVector			0		1	1	1	1	1	erasure	erasure		1	1	0	1	8	127		152	140	1		0	0	0	2	230	0			0				0.6999999999999999556	0	25	25	1		nan	201						140	155	125	215	245	1	wind	cloud	Planet1A.png	Ship1A.png	blank.png	fog0.png		0
6.6.1	mac	0	2024-01-08	17:20:36	1	1	1	experiment	1	getValueVector			0		1	1	1	1	1	erasure	erasure		1	1	0	1	9	129		152	140	1		0	0	0	2	230	0			0				0.6999999999999999556	0	25	25	1		nan	201						140	155	125	215	245	1	wind	cloud	Planet1A.png	Ship1A.png	blank.png	fog0.png		0
6.6.1	mac	0	2024-01-08	17:20:36	1	1	1	experiment	1	getValueVector			0		1	1	1	1	1	erasure	erasure		1	1	0	1	10	132		152	140	1		0	0	0	2	230	0			0				0.6999999999999999556	0	25	25	1		nan	201						140	155	125	215	245	1	wind	cloud	Planet1A.png	Ship1A.png	blank.png	fog0.png		0
6.6.1	mac	0	2024-01-08	17:20:36	1	1	1	experiment	1	getValueVector			0		1	1	1	1	1	erasure	erasure		1	1	0	1	11	135		152	140	1		0	0	0	2	230	0			0				0.6999999999999999556	0	25	25	1		nan	201						140	155	125	215	245	1	wind	cloud	Planet1A.png	Ship1A.png	blank.png	fog0.png		0
6.6.1	mac	0	2024-01-08	17:20:36	1	1	1	experiment	1	getValueVector			0		1	1	1	1	1	erasure	erasure		1	1	0	1	12	138		152	140	1		0	0	0	2	230	0			0				0.6999999999999999556	0	25	25	1		nan	201						140	155	125	215	245	1	wind	cloud	Planet1A.png	Ship1A.png	blank.png	fog0.png		0
6.6.1	mac	0	2024-01-08	17:20:36	1	1	1	experiment	1	getValueVector			0		1	1	1	1	1	erasure	erasure		1	1	0	1	13	141		152	140	1		0	0	0	2	230	0			0				0.6999999999999999556	0	25	25	1		nan	201						140	155	125	215	245	1	wind	cloud	Planet1A.png	Ship1A.png	blank.png	fog0.png		0
6.6.1	mac	0	2024-01-08	17:20:36	1	1	1	experiment	1	getValueVector			0		1	1	1	1	1	erasure	erasure		1	1	0	1	14	143		152	140	1		0	0	0	2	230	0			0				0.6999999999999999556	0	25	25	1		nan	201						140	155	125	215	245	1	wind	cloud	Planet1A.png	Ship1A.png	blank.png	fog0.png		0
6.6.1	mac	0	2024-01-08	17:20:36	1	1	1	experiment	1	getValueVector			0		1	1	1	1	1	erasure	erasure		1	1	0	1	15	146		152	140	1		0	0	0	2	230	0			0				0.6999999999999999556	0	25	25	1		nan	201						140	155	125	215	245	1	wind	cloud	Planet1A.png	Ship1A.png	blank.png	fog0.png		0
6.6.1	mac	0	2024-01-08	17:20:36	1	1	1	experiment	1	getValueVector			0		1	1	1	1	1	erasure	erasure		1	1	0	1	16	149		152	140	1		0	0	0	2	230	0			0				0.6999999999999999556	0	25	25	1		nan	201						140	155	125	215	245	1	wind	cloud	Planet1A.png	Ship1A.png	blank.png	fog0.png		0
6.6.1	mac	0	2024-01-08	17:20:36	1	1	1	experiment	1	getValueVector			0		1	1	1	1	1	erasure	erasure		1	1	0	1	17	152		152	140	1		0	0	0	2	230	0			0				0.6999999999999999556	0	25	25	1		nan	201						140	155	125	215	245	1	wind	cloud	Planet1A.png	Ship1A.png	blank.png	fog0.png		0
6.6.1	mac	0	2024-01-08	17:20:36	1	1	1	experiment	1	getValueVector			0		1	1	1	1	1	erasure	erasure		1	1	0	1	18	154		152	140	1		0	0	0	2	230	0			0				0.6999999999999999556	0	25	25	1		nan	201						140	155	125	215	245	1	wind	cloud	Planet1A.png	Ship1A.png	blank.png	fog0.png		0
6.6.1	mac	0	2024-01-08	17:20:36	1	1	1	experiment	1	getValueVector			0		1	1	1	1	1	erasure	erasure		1	1	0	1	19	157		152	140	1		0	0	0	2	230	0			0				0.6999999999999999556	0	25	25	1		nan	201						140	155	125	215	245	1	wind	cloud	Planet1A.png	Ship1A.png	blank.png	fog0.png		0
6.6.1	mac	0	2024-01-08	17:20:36	1	1	1	experiment	1	getValueVector			0		1	1	1	1	1	erasure	erasure		1	1	0	1	20	160		152	140	1		0	0	0	2	230	0			0				0.6999999999999999556	0	25	25	1		nan	201						140	155	125	215	245	1	wind	cloud	Planet1A.png	Ship1A.png	blank.png	fog0.png		0
6.6.1	mac	0	2024-01-08	17:20:36	1	1	1	experiment	1	getValueVector			0		1	1	1	1	1	erasure	erasure		1	1	0	1	21	162		152	140	1		0	0	0	2	230	0			0				0.6999999999999999556	0	25	25	1		nan	201						140	155	125	215	245	1	wind	cloud	Planet1A.png	Ship1A.png	blank.png	fog0.png		0
6.6.1	mac	0	2024-01-08	17:20:36	1	1	1	experiment	1	getValueVector			0		1	1	1	1	1	erasure	erasure		1	1	0	1	22	165		152	140	1		0	0	0	2	230	0			0				0.6999999999999999556	0	25	25	1		nan	201						140	155	125	215	245	1	wind	cloud	Planet1A.png	Ship1A.png	blank.png	fog0.png		0
6.6.1	mac	0	2024-01-08	17:20:36	1	1	1	experiment	1	getValueVector			0		1	1	1	1	1	erasure	erasure		1	1	0	1	23	168		152	140	1		0	0	0	2	230	0			0				0.6999999999999999556	0	25	25	1		nan	201						140	155	125	215	245	1	wind	cloud	Planet1A.png	Ship1A.png	blank.png	fog0.png		0
6.6.1	mac	0	2024-01-08	17:20:36	1	1	1	experiment	1	getValueVector			0		1	1	1	1	1	erasure	erasure		1	1	0	1	24	170		152	140	1		0	0	0	2	230	0			0				0.6999999999999999556	0	25	25	1		nan	201						140	155	125	215	245	1	wind	cloud	Planet1A.png	Ship1A.png	blank.png	fog0.png		0
6.6.1	mac	0	2024-01-08	17:20:36	1	1	1	experiment	1	getValueVector			0		1	1	1	1	1	erasure	erasure		1	1	0	1	25	173		152	140	1		0	0	0	2	230	0			0				0.6999999999999999556	0	25	25	1		nan	201						140	155	125	215	245	1	wind	cloud	Planet1A.png	Ship1A.png	blank.png	fog0.png		0
6.6.1	mac	0	2024-01-08	17:20:36	1	1	1	experiment	1	getValueVector			0		1	1	1	1	1	erasure	erasure		1	1	0	1	26	175		152	140	1		0	0	0	2	230	0			0				0.6999999999999999556	0	25	25	1		nan	201						140	155	125	215	245	1	wind	cloud	Planet1A.png	Ship1A.png	blank.png	fog0.png		0
6.6.1	mac	0	2024-01-08	17:20:36	1	1	1	experiment	1	getValueVector			0		1	1	1	1	1	erasure	erasure		1	1	0	1	27	177		152	140	1		0	0	0	2	230	0			0				0.6999999999999999556	0	25	25	1		nan	201						140	155	125	215	245	1	wind	cloud	Planet1A.png	Ship1A.png	blank.png	fog0.png		0
6.6.1	mac	0	2024-01-08	17:20:36	1	1	1	experiment	1	getValueVector			0		1	1	1	1	1	erasure	erasure		1	1	0	1	28	179		152	140	1		0	0	0	2	230	0			0				0.6999999999999999556	0	25	25	1		nan	201						140	155	125	215	245	1	wind	cloud	Planet1A.png	Ship1A.png	blank.png	fog0.png		0
6.6.1	mac	0	2024-01-08	17:20:36	1	1	1	experiment	1	getValueVector			0		1	1	1	1	1	erasure	erasure		1	1	0	1	29	182		152	140	1		0	0	0	2	230	0			0				0.6999999999999999556	0	25	25	1		nan	201						140	155	125	215	245	1	wind	cloud	Planet1A.png	Ship1A.png	blank.png	fog0.png		0
6.6.1	mac	0	2024-01-08	17:20:36	1	1	1	experiment	1	getValueVector			0		1	1	1	1	1	erasure	erasure		1	1	0	1	30	184		152	140	1		0	0	0	2	230	0			0				0.6999999999999999556	0	25	25	1		nan	201						140	155	125	215	245	1	wind	cloud	Planet1A.png	Ship1A.png	blank.png	fog0.png		0
6.6.1	mac	0	2024-01-08	17:20:36	1	1	1	experiment	1	getValueVector			0		1	1	1	1	1	erasure	erasure		1	1	0	1	31	186		152	140	1		0	0	0	2	230	0			0				0.6999999999999999556	0	25	25	1		nan	201						140	155	125	215	245	1	wind	cloud	Planet1A.png	Ship1A.png	blank.png	fog0.png		0
6.6.1	mac	0	2024-01-08	17:20:36	1	1	1	experiment	1	getValueVector			0		1	1	1	1	1	erasure	erasure		1	1	0	1	32	187		152	140	1		0	0	0	2	230	0			0				0.6999999999999999556	0	25	25	1		nan	201						140	155	125	215	245	1	wind	cloud	Planet1A.png	Ship1A.png	blank.png	fog0.png		0
6.6.1	mac	0	2024-01-08	17:20:36	1	1	1	experiment	1	getValueVector			0		1	1	1	1	1	erasure	erasure		1	1	0	1	33	189		152	140	1		0	0	0	2	230	0			0				0.6999999999999999556	0	25	25	1		nan	201						140	155	125	215	245	1	wind	cloud	Planet1A.png	Ship1A.png	blank.png	fog0.png		0
6.6.1	mac	0	2024-01-08	17:20:36	1	1	1	experiment	1	getValueVector			0		1	1	1	1	1	erasure	erasure		1	1	0	1	34	191		152	140	1		0	0	0	2	230	0			0				0.6999999999999999556	0	25	25	1		nan	201						140	155	125	215	245	1	wind	cloud	Planet1A.png	Ship1A.png	blank.png	fog0.png		0
6.6.1	mac	0	2024-01-08	17:20:36	1	1	1	experiment	1	getValueVector			0		1	1	1	1	1	erasure	erasure		1	1	0	1	35	192		152	140	1		0	0	0	2	230	0			0				0.6999999999999999556	0	25	25	1		nan	201						140	155	125	215	245	1	wind	cloud	Planet1A.png	Ship1A.png	blank.png	fog0.png		0
6.6.1	mac	0	2024-01-08	17:20:36	1	1	1	experiment	1	getValueVector			0		1	1	1	1	1	erasure	erasure		1	1	0	1	36	194		152	140	1		0	0	0	2	230	0			0				0.6999999999999999556	0	25	25	1		nan	201						140	155	125	215	245	1	wind	cloud	Planet1A.png	Ship1A.png	blank.png	fog0.png		0
6.6.1	mac	0	2024-01-08	17:20:36	1	1	1	experiment	1	getValueVector			0		1	1	1	1	1	erasure	erasure		1	1	0	1	37	195		152	140	1		0	0	0	2	230	0			0				0.6999999999999999556	0	25	25	1		nan	201						140	155	125	215	245	1	wind	cloud	Planet1A.png	Ship1A.png	blank.png	fog0.png		0
6.6.1	mac	0	2024-01-08	17:20:36	1	1	1	experiment	1	getValueVector			0		1	1	1	1	1	erasure	erasure		1	1	0	1	38	196		152	140	1		0	0	0	2	230	0			0				0.6999999999999999556	0	25	25	1		nan	201						140	155	125	215	245	1	wind	cloud	Planet1A.png	Ship1A.png	blank.png	fog0.png		0
6.6.1	mac	0	2024-01-08	17:20:36	1	1	1	experiment	1	getValueVector			0		1	1	1	1	1	erasure	erasure		1	1	0	1	39	197		152	140	1		0	0	0	2	230	0			0				0.6999999999999999556	0	25	25	1		nan	201						140	155	125	215	245	1	wind	cloud	Planet1A.png	Ship1A.png	blank.png	fog0.png		0
6.6.1	mac	0	2024-01-08	17:20:36	1	1	1	experiment	1	getValueVector			0		1	1	1	1	1	erasure	erasure		1	1	0	1	40	198		152	140	1		0	0	0	2	230	0			0				0.6999999999999999556	0	25	25	1		nan	201						140	155	125	215	245	1	wind	cloud	Planet1A.png	Ship1A.png	blank.png	fog0.png		0
6.6.1	mac	0	2024-01-08	17:20:36	1	1	1	experiment	1	getValueVector			0		1	1	1	1	1	erasure	erasure		1	1	0	1	41	199		152	140	1		0	0	0	2	230	0			0				0.6999999999999999556	0	25	25	1		nan	201						140	155	125	215	245	1	wind	cloud	Planet1A.png	Ship1A.png	blank.png	fog0.png		0
6.6.1	mac	0	2024-01-08	17:20:36	1	1	1	experiment	1	getValueVector			0		1	1	1	1	1	erasure	erasure		1	1	0	1	42	200		152	140	1		0	0	0	2	230	0			0				0.6999999999999999556	0	25	25	1		nan	201						140	155	125	215	245	1	wind	cloud	Planet1A.png	Ship1A.png	blank.png	fog0.png		0
6.6.1	mac	0	2024-01-08	17:20:36	1	1	1	experiment	1	getValueVector			0		1	1	1	1	1	erasure	erasure		1	1	0	1	43	200		152	140	1		0	0	0	2	230	0			0				0.6999999999999999556	0	25	25	1		nan	201						140	155	125	215	245	1	wind	cloud	Planet1A.png	Ship1A.png	blank.png	fog0.png		0
6.6.1	mac	0	2024-01-08	17:20:36	1	1	1	experiment	1	getValueVector			0		1	1	1	1	1	erasure	erasure		1	1	0	1	44	201		152	140	1		0	0	0	2	230	0			0				0.6999999999999999556	0	25	25	1		nan	201						140	155	125	215	245	1	wind	cloud	Planet1A.png	Ship1A.png	blank.png	fog0.png		0
6.6.1	mac	0	2024-01-08	17:20:36	1	1	1	experiment	1	getValueVector			0		1	1	1	1	1	erasure	erasure		1	1	0	1	45	201		152	140	1		0	0	0	2	230	0			0				0.6999999999999999556	0	25	25	1		nan	201						140	155	125	215	245	1	wind	cloud	Planet1A.png	Ship1A.png	blank.png	fog0.png		0
6.6.1	mac	0	2024-01-08	17:20:36	1	1	1	experiment	1	getValueVector			0		1	1	1	1	1	erasure	erasure		1	1	0	1	46	201		152	140	1		0	0	0	2	230	0			0				0.6999999999999999556	0	25	25	1		nan	201						140	155	125	215	245	1	wind	cloud	Planet1A.png	Ship1A.png	blank.png	fog0.png		0
6.6.1	mac	0	2024-01-08	17:20:36	1	1	1	experiment	1	getValueVector			0		1	1	1	1	1	erasure	erasure		1	1	0	1	47	201		152	140	1		0	0	0	2	230	0			0				0.6999999999999999556	0	25	25	1		nan	201						140	155	125	215	245	1	wind	cloud	Planet1A.png	Ship1A.png	blank.png	fog0.png		0
6.6.1	mac	0	2024-01-08	17:20:36	1	1	1	experiment	1	getValueVector			0		1	1	1	1	1	erasure	erasure		1	1	0	1	48	201		152	140	1		0	0	0	2	230	0			0				0.6999999999999999556	0	25	25	1		nan	201						140	155	125	215	245	1	wind	cloud	Planet1A.png	Ship1A.png	blank.png	fog0.png		0
6.6.1	mac	0	2024-01-08	17:20:36	1	1	1	experiment	1	getValueVector			0		1	1	1	1	1	erasure	erasure		1	1	0	1	49	201		152	140	1		0	0	0	2	230	0			0				0.6999999999999999556	0	25	25	1		nan	201						140	155	125	215	245	1	wind	cloud	Planet1A.png	Ship1A.png	blank.png	fog0.png		0
6.6.1	mac	0	2024-01-08	17:20:36	1	1	1	experiment	1	getValueVector			0		1	1	1	1	1	erasure	erasure		1	1	0	1	50	200		152	140	1		0	0	0	2	230	0			0				0.6999999999999999556	0	25	25	1		nan	201						140	155	125	215	245	1	wind	cloud	Planet1A.png	Ship1A.png	blank.png	fog0.png		0
6.6.1	mac	0	2024-01-08	17:20:36	1	1	1	experiment	1	getValueVector			0		1	1	1	1	1	erasure	erasure		1	1	0	1	51	200		152	140	1		0	0	0	2	230	0			0				0.6999999999999999556	0	25	25	1		nan	201						140	155	125	215	245	1	wind	cloud	Planet1A.png	Ship1A.png	blank.png	fog0.png		0
6.6.1	mac	0	2024-01-08	17:20:36	1	1	1	experiment	1	getValueVector			0		1	1	1	1	1	erasure	erasure		1	1	0	1	52	199		152	140	1		0	0	0	2	230	0			0				0.6999999999999999556	0	25	25	1		nan	201						140	155	125	215	245	1	wind	cloud	Planet1A.png	Ship1A.png	blank.png	fog0.png		0
6.6.1	mac	0	2024-01-08	17:20:36	1	1	1	experiment	1	getValueVector			0		1	1	1	1	1	erasure	erasure		1	1	0	1	53	198		152	140	1		0	0	0	2	230	0			0				0.6999999999999999556	0	25	25	1		nan	201						140	155	125	215	245	1	wind	cloud	Planet1A.png	Ship1A.png	blank.png	fog0.png		0
6.6.1	mac	0	2024-01-08	17:20:36	1	1	1	experiment	1	getValueVector			0		1	1	1	1	1	erasure	erasure		1	1	0	1	54	197		152	140	1		0	0	0	2	230	0			0				0.6999999999999999556	0	25	25	1		nan	201						140	155	125	215	245	1	wind	cloud	Planet1A.png	Ship1A.png	blank.png	fog0.png		0
6.6.1	mac	0	2024-01-08	17:20:36	1	1	1	experiment	1	getValueVector			0		1	1	1	1	1	erasure	erasure		1	1	0	1	55	196		152	140	1		0	0	0	2	230	0			0				0.6999999999999999556	0	25	25	1		nan	201						140	155	125	215	245	1	wind	cloud	Planet1A.png	Ship1A.png	blank.png	fog0.png		0
6.6.1	mac	0	2024-01-08	17:20:36	1	1	1	experiment	1	getValueVector			0		1	1	1	1	1	erasure	erasure		1	1	0	1	56	195		152	140	1		0	0	0	2	230	0			0				0.6999999999999999556	0	25	25	1		nan	201						140	155	125	215	245	1	wind	cloud	Planet1A.png	Ship1A.png	blank.png	fog0.png		0
6.6.1	mac	0	2024-01-08	17:20:36	1	1	1	experiment	1	getValueVector			0		1	1	1	1	1	erasure	erasure		1	1	0	1	57	194		152	140	1		0	0	0	2	230	0			0				0.6999999999999999556	0	25	25	1		nan	201						140	155	125	215	245	1	wind	cloud	Planet1A.png	Ship1A.png	blank.png	fog0.png		0
6.6.1	mac	0	2024-01-08	17:20:36	1	1	1	experiment	1	getValueVector			0		1	1	1	1	1	erasure	erasure		1	1	0	1	58	192		152	140	1		0	0	0	2	230	0			0				0.6999999999999999556	0	25	25	1		nan	201						140	155	125	215	245	1	wind	cloud	Planet1A.png	Ship1A.png	blank.png	fog0.png		0
6.6.1	mac	0	2024-01-08	17:20:36	1	1	1	experiment	1	getValueVector			0		1	1	1	1	1	erasure	erasure		1	1	0	1	59	191		152	140	1		0	0	0	2	230	0			0				0.6999999999999999556	0	25	25	1		nan	201						140	155	125	215	245	1	wind	cloud	Planet1A.png	Ship1A.png	blank.png	fog0.png		0
6.6.1	mac	0	2024-01-08	17:20:36	1	1	1	experiment	1	getValueVector			0		1	1	1	1	1	erasure	erasure		1	1	0	1	60	189		152	140	1		0	0	0	2	230	0			0				0.6999999999999999556	0	25	25	1		nan	201						140	155	125	215	245	1	wind	cloud	Planet1A.png	Ship1A.png	blank.png	fog0.png		0
6.6.1	mac	0	2024-01-08	17:20:36	1	1	1	experiment	1	getValueVector			0		1	1	1	1	1	erasure	erasure		1	1	0	1	61	187		152	140	1		0	0	0	2	230	0			0				0.6999999999999999556	0	25	25	1		nan	201						140	155	125	215	245	1	wind	cloud	Planet1A.png	Ship1A.png	blank.png	fog0.png		0
6.6.1	mac	0	2024-01-08	17:20:36	1	1	1	experiment	1	getValueVector			0		1	1	1	1	1	erasure	erasure		1	1	0	1	62	186		152	140	1		0	0	0	2	230	0			0				0.6999999999999999556	0	25	25	1		nan	201						140	155	125	215	245	1	wind	cloud	Planet1A.png	Ship1A.png	blank.png	fog0.png		0
6.6.1	mac	0	2024-01-08	17:20:36	1	1	1	experiment	1	getValueVector			0		1	1	1	1	1	erasure	erasure		1	1	0	1	63	184		152	140	1		0	0	0	2	230	0			0				0.6999999999999999556	0	25	25	1		nan	201						140	155	125	215	245	1	wind	cloud	Planet1A.png	Ship1A.png	blank.png	fog0.png		0
6.6.1	mac	0	2024-01-08	17:20:36	1	1	1	experiment	1	getValueVector			0		1	1	1	1	1	erasure	erasure		1	1	0	1	64	182		152	140	1		0	0	0	2	230	0			0				0.6999999999999999556	0	25	25	1		nan	201						140	155	125	215	245	1	wind	cloud	Planet1A.png	Ship1A.png	blank.png	fog0.png		0
6.6.1	mac	0	2024-01-08	17:20:36	1	1	1	experiment	1	getValueVector			0		1	1	1	1	1	erasure	erasure		1	1	0	1	65	180		152	140	1		0	0	0	2	230	0			0				0.6999999999999999556	0	25	25	1		nan	201						140	155	125	215	245	1	wind	cloud	Planet1A.png	Ship1A.png	blank.png	fog0.png		0
6.6.1	mac	0	2024-01-08	17:20:36	1	1	1	experiment	1	getValueVector			0		1	1	1	1	1	erasure	erasure		1	1	0	1	66	177		152	140	1		0	0	0	2	230	0			0				0.6999999999999999556	0	25	25	1		nan	201						140	155	125	215	245	1	wind	cloud	Planet1A.png	Ship1A.png	blank.png	fog0.png		0
6.6.1	mac	0	2024-01-08	17:20:36	1	1	1	experiment	1	getValueVector			0		1	1	1	1	1	erasure	erasure		1	1	0	1	67	175		152	140	1		0	0	0	2	230	0			0				0.6999999999999999556	0	25	25	1		nan	201						140	155	125	215	245	1	wind	cloud	Planet1A.png	Ship1A.png	blank.png	fog0.png		0
6.6.1	mac	0	2024-01-08	17:20:36	1	1	1	experiment	1	getValueVector			0		1	1	1	1	1	erasure	erasure		1	1	0	1	68	173		152	140	1		0	0	0	2	230	0			0				0.6999999999999999556	0	25	25	1		nan	201						140	155	125	215	245	1	wind	cloud	Planet1A.png	Ship1A.png	blank.png	fog0.png		0
6.6.1	mac	0	2024-01-08	17:20:36	1	1	1	experiment	1	getValueVector			0		1	1	1	1	1	erasure	erasure		1	1	0	1	69	171		152	140	1		0	0	0	2	230	0			0				0.6999999999999999556	0	25	25	1		nan	201						140	155	125	215	245	1	wind	cloud	Planet1A.png	Ship1A.png	blank.png	fog0.png		0
6.6.1	mac	0	2024-01-08	17:20:36	1	1	1	experiment	1	getValueVector			0		1	1	1	1	1	erasure	erasure		1	1	0	1	70	168		152	140	1		0	0	0	2	230	0			0				0.6999999999999999556	0	25	25	1		nan	201						140	155	125	215	245	1	wind	cloud	Planet1A.png	Ship1A.png	blank.png	fog0.png		0
6.6.1	mac	0	2024-01-08	17:20:36	1	1	1	experiment	1	getValueVector			0		1	1	1	1	1	erasure	erasure		1	1	0	1	71	166		152	140	1		0	0	0	2	230	0			0				0.6999999999999999556	0	25	25	1		nan	201						140	155	125	215	245	1	wind	cloud	Planet1A.png	Ship1A.png	blank.png	fog0.png		0
6.6.1	mac	0	2024-01-08	17:20:36	1	1	1	experiment	1	getValueVector			0		1	1	1	1	1	erasure	erasure		1	1	0	1	72	163		152	140	1		0	0	0	2	230	0			0				0.6999999999999999556	0	25	25	1		nan	201						140	155	125	215	245	1	wind	cloud	Planet1A.png	Ship1A.png	blank.png	fog0.png		0
6.6.1	mac	0	2024-01-08	17:20:36	1	1	1	experiment	1	getValueVector			0		1	1	1	1	1	erasure	erasure		1	1	0	1	73	161		152	140	1		0	0	0	2	230	0			0				0.6999999999999999556	0	25	25	1		nan	201						140	155	125	215	245	1	wind	cloud	Planet1A.png	Ship1A.png	blank.png	fog0.png		0
6.6.1	mac	0	2024-01-08	17:20:36	1	1	1	experiment	1	getValueVector			0		1	1	1	1	1	erasure	erasure		1	1	0	1	74	158		152	140	1		0	0	0	2	230	0			0				0.6999999999999999556	0	25	25	1		nan	201						140	155	125	215	245	1	wind	cloud	Planet1A.png	Ship1A.png	blank.png	fog0.png		0
6.6.1	mac	0	2024-01-08	17:20:36	1	1	1	experiment	1	getValueVector			0		1	1	1	1	1	erasure	erasure		1	1	0	1	75	156		152	140	1		0	0	0	2	230	0			0				0.6999999999999999556	0	25	25	1		nan	201						140	155	125	215	245	1	wind	cloud	Planet1A.png	Ship1A.png	blank.png	fog0.png		0
6.6.1	mac	0	2024-01-08	17:20:36	1	1	1	experiment	1	getValueVector			0		1	1	1	1	1	erasure	erasure		1	1	0	1	76	153		152	140	1		0	0	0	2	230	0			0				0.6999999999999999556	0	25	25	1		nan	201						140	155	125	215	245	1	wind	cloud	Planet1A.png	Ship1A.png	blank.png	fog0.png		0
6.6.1	mac	0	2024-01-08	17:20:36	1	1	1	experiment	1	getValueVector			0		1	1	1	1	1	erasure	erasure		1	1	0	1	77	151		152	140	1		0	0	0	2	230	0			0				0.6999999999999999556	0	25	25	1		nan	201						140	155	125	215	245	1	wind	cloud	Planet1A.png	Ship1A.png	blank.png	fog0.png		0
6.6.1	mac	0	2024-01-08	17:20:36	1	1	1	experiment	1	getValueVector			0		1	1	1	1	1	erasure	erasure		1	1	0	1	78	148		152	140	1		0	0	0	2	230	0			0				0.6999999999999999556	0	25	25	1		nan	201						140	155	125	215	245	1	wind	cloud	Planet1A.png	Ship1A.png	blank.png	fog0.png		0
6.6.1	mac	0	2024-01-08	17:20:36	1	1	1	experiment	1	getValueVector			0		1	1	1	1	1	erasure	erasure		1	1	0	1	79	146		152	140	1		0	0	0	2	230	0			0				0.6999999999999999556	0	25	25	1		nan	201						140	155	125	215	245	1	wind	cloud	Planet1A.png	Ship1A.png	blank.png	fog0.png		0
6.6.1	mac	0	2024-01-08	17:20:36	1	1	1	experiment	1	getValueVector			0		1	1	1	1	1	erasure	erasure		1	1	0	1	80	143		152	140	1		0	0	0	2	230	0			0				0.6999999999999999556	0	25	25	1		nan	201						140	155	125	215	245	1	wind	cloud	Planet1A.png	Ship1A.png	blank.png	fog0.png		0
6.6.1	mac	0	2024-01-08	17:20:36	1	1	1	experiment	1	getValueVector			0		1	1	1	1	1	erasure	erasure		1	1	0	1	81	140		152	140	1		0	0	0	2	230	0			0				0.6999999999999999556	0	25	25	1		nan	201						140	155	125	215	245	1	wind	cloud	Planet1A.png	Ship1A.png	blank.png	fog0.png		0
6.6.1	mac	0	2024-01-08	17:20:36	1	1	1	experiment	1	getValueVector			0		1	1	1	1	1	erasure	erasure		1	1	0	1	82	138		152	140	1		0	0	0	2	230	0			0				0.6999999999999999556	0	25	25	1		nan	201						140	155	125	215	245	1	wind	cloud	Planet1A.png	Ship1A.png	blank.png	fog0.png		0
6.6.1	mac	0	2024-01-08	17:20:36	1	1	1	experiment	1	getValueVector			0		1	1	1	1	1	erasure	erasure		1	1	0	1	83	135		152	140	1		0	0	0	2	230	0			0				0.6999999999999999556	0	25	25	1		nan	201						140	155	125	215	245	1	wind	cloud	Planet1A.png	Ship1A.png	blank.png	fog0.png		0
6.6.1	mac	0	2024-01-08	17:20:36	1	1	1	experiment	1	getValueVector			0		1	1	1	1	1	erasure	erasure		1	1	0	1	84	133		152	140	1		0	0	0	2	230	0			0				0.6999999999999999556	0	25	25	1		nan	201						140	155	125	215	245	1	wind	cloud	Planet1A.png	Ship1A.png	blank.png	fog0.png		0
6.6.1	mac	0	2024-01-08	17:20:36	1	1	1	experiment	1	getValueVector			0		1	1	1	1	1	erasure	erasure		1	1	0	1	85	130		152	140	1		0	0	0	2	230	0			0				0.6999999999999999556	0	25	25	1		nan	201						140	155	125	215	245	1	wind	cloud	Planet1A.png	Ship1A.png	blank.png	fog0.png		0
6.6.1	mac	0	2024-01-08	17:20:36	1	1	1	experiment	1	getValueVector			0		1	1	1	1	1	erasure	erasure		1	1	0	1	86	127		152	140	1		0	0	0	2	230	0			0				0.6999999999999999556	0	25	25	1		nan	201						140	155	125	215	245	1	wind	cloud	Planet1A.png	Ship1A.png	blank.png	fog0.png		0
6.6.1	mac	0	2024-01-08	17:20:36	1	1	1	experiment	1	getValueVector			0		1	1	1	1	1	erasure	erasure		1	1	0	1	87	125		152	140	1		0	0	0	2	230	0			0				0.6999999999999999556	0	25	25	1		nan	201						140	155	125	215	245	1	wind	cloud	Planet1A.png	Ship1A.png	blank.png	fog0.png		0
6.6.1	mac	0	2024-01-08	17:20:36	1	1	1	experiment	1	getValueVector			0		1	1	1	1	1	erasure	erasure		1	1	0	1	88	122		152	140	1		0	0	0	2	230	0			0				0.6999999999999999556	0	25	25	1		nan	201						140	155	125	215	245	1	wind	cloud	Planet1A.png	Ship1A.png	blank.png	fog0.png		0
6.6.1	mac	0	2024-01-08	17:20:36	1	1	1	experiment	1	getValueVector			0		1	1	1	1	1	erasure	erasure		1	1	0	1	89	120		152	140	1		0	0	0	2	230	0			0				0.6999999999999999556	0	25	25	1		nan	201						140	155	125	215	245	1	wind	cloud	Planet1A.png	Ship1A.png	blank.png	fog0.png		0
6.6.1	mac	0	2024-01-08	17:20:36	1	1	1	experiment	1	getValueVector			0		1	1	1	1	1	erasure	erasure		1	1	0	1	90	117		152	140	1		0	0	0	2	230	0			0				0.6999999999999999556	0	25	25	1		nan	201						140	155	125	215	245	1	wind	cloud	Planet1A.png	Ship1A.png	blank.png	fog0.png		0
6.6.1	mac	0	2024-01-08	17:20:36	1	1	1	experiment	1	getValueVector			0		1	1	1	1	1	erasure	erasure		1	1	0	1	91	115		152	140	1		0	0	0	2	230	0			0				0.6999999999999999556	0	25	25	1		nan	201						140	155	125	215	245	1	wind	cloud	Planet1A.png	Ship1A.png	blank.png	fog0.png		0
6.6.1	mac	0	2024-01-08	17:20:36	1	1	1	experiment	1	getValueVector			0		1	1	1	1	1	erasure	erasure		1	1	0	1	92	112		152	140	1		0	0	0	2	230	0			0				0.6999999999999999556	0	25	25	1		nan	201						140	155	125	215	245	1	wind	cloud	Planet1A.png	Ship1A.png	blank.png	fog0.png		0
6.6.1	mac	0	2024-01-08	17:20:36	1	1	1	experiment	1	getValueVector			0		1	1	1	1	1	erasure	erasure		1	1	0	1	93	110		152	140	1		0	0	0	2	230	0			0				0.6999999999999999556	0	25	25	1		nan	201						140	155	125	215	245	1	wind	cloud	Planet1A.png	Ship1A.png	blank.png	fog0.png		0
6.6.1	mac	0	2024-01-08	17:20:36	1	1	1	experiment	1	getValueVector			0		1	1	1	1	1	erasure	erasure		1	1	0	1	94	108		152	140	1		0	0	0	2	230	0			0				0.6999999999999999556	0	25	25	1		nan	201						140	155	125	215	245	1	wind	cloud	Planet1A.png	Ship1A.png	blank.png	fog0.png		0
6.6.1	mac	0	2024-01-08	17:20:36	1	1	1	experiment	1	getValueVector			0		1	1	1	1	1	erasure	erasure		1	1	0	1	95	105		152	140	1		0	0	0	2	230	0			0				0.6999999999999999556	0	25	25	1		nan	201						140	155	125	215	245	1	wind	cloud	Planet1A.png	Ship1A.png	blank.png	fog0.png		0
6.6.1	mac	0	2024-01-08	17:20:36	1	1	1	experiment	1	getValueVector			0		1	1	1	1	1	erasure	erasure		1	1	0	1	96	103		152	140	1		0	0	0	2	230	0			0				0.6999999999999999556	0	25	25	1		nan	201						140	155	125	215	245	1	wind	cloud	Planet1A.png	Ship1A.png	blank.png	fog0.png		0
6.6.1	mac	0	2024-01-08	17:20:36	1	1	1	experiment	1	getValueVector			0		1	1	1	1	1	erasure	erasure		1	1	0	1	97	101		152	140	1		0	0	0	2	230	0			0				0.6999999999999999556	0	25	25	1		nan	201						140	155	125	215	245	1	wind	cloud	Planet1A.png	Ship1A.png	blank.png	fog0.png		0
6.6.1	mac	0	2024-01-08	17:20:36	1	1	1	experiment	1	getValueVector			0		1	1	1	1	1	erasure	erasure		1	1	0	1	98	98		152	140	1		0	0	0	2	230	0			0				0.6999999999999999556	0	25	25	1		nan	201						140	155	125	215	245	1	wind	cloud	Planet1A.png	Ship1A.png	blank.png	fog0.png		0
6.6.1	mac	0	2024-01-08	17:20:36	1	1	1	experiment	1	getValueVector			0		1	1	1	1	1	erasure	erasure		1	1	0	1	99	96		152	140	1		0	0	0	2	230	0			0				0.6999999999999999556	0	25	25	1		nan	201						140	155	125	215	245	1	wind	cloud	Planet1A.png	Ship1A.png	blank.png	fog0.png		0
6.6.1	mac	0	2024-01-08	17:20:36	1	1	1	experiment	1	getValueVector			0		1	1	1	1	1	erasure	erasure		1	1	0	1	100	94		152	140	1		0	0	0	2	230	0			0				0.6999999999999999556	0	25	25	1		nan	201						140	155	125	215	245	1	wind	cloud	Planet1A.png	Ship1A.png	blank.png	fog0.png		0
6.6.1	mac	0	2024-01-08	17:20:36	1	1	1	experiment	1	getValueVector			0		1	1	1	1	1	erasure	erasure		1	1	0	1	101	92		152	140	1		0	0	0	2	230	0			0				0.6999999999999999556	0	25	25	1		nan	201						140	155	125	215	245	1	wind	cloud	Planet1A.png	Ship1A.png	blank.png	fog0.png		0
6.6.1	mac	0	2024-01-08	17:20:36	1	1	1	experiment	1	getValueVector			0		1	1	1	1	1	erasure	erasure		1	1	0	1	102	89		152	140	1		0	0	0	2	230	0			0				0.6999999999999999556	0	25	25	1		nan	201						140	155	125	215	245	1	wind	cloud	Planet1A.png	Ship1A.png	blank.png	fog0.png		0
6.6.1	mac	0	2024-01-08	17:20:36	1	1	1	experiment	1	getValueVector			0		1	1	1	1	1	erasure	erasure		1	1	0	1	103	87		152	140	1		0	0	0	2	230	0			0				0.6999999999999999556	0	25	25	1		nan	201						140	155	125	215	245	1	wind	cloud	Planet1A.png	Ship1A.png	blank.png	fog0.png		0
6.6.1	mac	0	2024-01-08	17:20:36	1	1	1	experiment	1	getValueVector			0		1	1	1	1	1	erasure	erasure		1	1	0	1	104	85		152	140	1		0	0	0	2	230	0			0				0.6999999999999999556	0	25	25	1		nan	201						140	155	125	215	245	1	wind	cloud	Planet1A.png	Ship1A.png	blank.png	fog0.png		0
6.6.1	mac	0	2024-01-08	17:20:36	1	1	1	experiment	1	getValueVector			0		1	1	1	1	1	erasure	erasure		1	1	0	1	105	83		152	140	1		0	0	0	2	230	0			0				0.6999999999999999556	0	25	25	1		nan	201						140	155	125	215	245	1	wind	cloud	Planet1A.png	Ship1A.png	blank.png	fog0.png		0
6.6.1	mac	0	2024-01-08	17:20:36	1	1	1	experiment	1	getValueVector			0		1	1	1	1	1	erasure	erasure		1	1	0	1	106	81		152	140	1		0	0	0	2	230	0			0				0.6999999999999999556	0	25	25	1		nan	201						140	155	125	215	245	1	wind	cloud	Planet1A.png	Ship1A.png	blank.png	fog0.png		0
6.6.1	mac	0	2024-01-08	17:20:36	1	1	1	experiment	1	getValueVector			0		1	1	1	1	1	erasure	erasure		1	1	0	1	107	79		152	140	1		0	0	0	2	230	0			0				0.6999999999999999556	0	25	25	1		nan	201						140	155	125	215	245	1	wind	cloud	Planet1A.png	Ship1A.png	blank.png	fog0.png		0
6.6.1	mac	0	2024-01-08	17:20:36	1	1	1	experiment	1	getValueVector			0		1	1	1	1	1	erasure	erasure		1	1	0	1	108	77		152	140	1		0	0	0	2	230	0			0				0.6999999999999999556	0	25	25	1		nan	201						140	155	125	215	245	1	wind	cloud	Planet1A.png	Ship1A.png	blank.png	fog0.png		0
6.6.1	mac	0	2024-01-08	17:20:36	1	1	1	experiment	1	getValueVector			0		1	1	1	1	1	erasure	erasure		1	1	0	1	109	75		152	140	1		0	0	0	2	230	0			0				0.6999999999999999556	0	25	25	1		nan	201						140	155	125	215	245	1	wind	cloud	Planet1A.png	Ship1A.png	blank.png	fog0.png		0
6.6.1	mac	0	2024-01-08	17:20:36	1	1	1	experiment	1	getValueVector			0		1	1	1	1	1	erasure	erasure		1	1	0	1	110	73		152	140	1		0	0	0	2	230	0			0				0.6999999999999999556	0	25	25	1		nan	201						140	155	125	215	245	1	wind	cloud	Planet1A.png	Ship1A.png	blank.png	fog0.png		0
6.6.1	mac	0	2024-01-08	17:20:36	1	1	1	experiment	1	getValueVector			0		1	1	1	1	1	erasure	erasure		1	1	0	1	111	71		152	140	1		0	0	0	2	230	0			0				0.6999999999999999556	0	25	25	1		nan	201						140	155	125	215	245	1	wind	cloud	Planet1A.png	Ship1A.png	blank.png	fog0.png		0
6.6.1	mac	0	2024-01-08	17:20:36	1	1	1	experiment	1	getValueVector			0		1	1	1	1	1	erasure	erasure		1	1	0	1	112	70		152	140	1		0	0	0	2	230	0			0				0.6999999999999999556	0	25	25	1		nan	201						140	155	125	215	245	1	wind	cloud	Planet1A.png	Ship1A.png	blank.png	fog0.png		0
6.6.1	mac	0	2024-01-08	17:20:36	1	1	1	experiment	1	getValueVector			0		1	1	1	1	1	erasure	erasure		1	1	0	1	113	68		152	140	1		0	0	0	2	230	0			0				0.6999999999999999556	0	25	25	1		nan	201						140	155	125	215	245	1	wind	cloud	Planet1A.png	Ship1A.png	blank.png	fog0.png		0
6.6.1	mac	0	2024-01-08	17:20:36	1	1	1	experiment	1	getValueVector			0		1	1	1	1	1	erasure	erasure		1	1	0	1	114	66		152	140	1		0	0	0	2	230	0			0				0.6999999999999999556	0	25	25	1		nan	201						140	155	125	215	245	1	wind	cloud	Planet1A.png	Ship1A.png	blank.png	fog0.png		0
6.6.1	mac	0	2024-01-08	17:20:36	1	1	1	experiment	1	getValueVector			0		1	1	1	1	1	erasure	erasure		1	1	0	1	115	64		152	140	1		0	0	0	2	230	0			0				0.6999999999999999556	0	25	25	1		nan	201						140	155	125	215	245	1	wind	cloud	Planet1A.png	Ship1A.png	blank.png	fog0.png		0
6.6.1	mac	0	2024-01-08	17:20:36	1	1	1	experiment	1	getValueVector			0		1	1	1	1	1	erasure	erasure		1	1	0	1	116	62		152	140	1		0	0	0	2	230	0			0				0.6999999999999999556	0	25	25	1		nan	201						140	155	125	215	245	1	wind	cloud	Planet1A.png	Ship1A.png	blank.png	fog0.png		0
6.6.1	mac	0	2024-01-08	17:20:36	1	1	1	experiment	1	getValueVector			0		1	1	1	1	1	erasure	erasure		1	1	0	1	117	61		152	140	1		0	0	0	2	230	0			0				0.6999999999999999556	0	25	25	1		nan	201						140	155	125	215	245	1	wind	cloud	Planet1A.png	Ship1A.png	blank.png	fog0.png		0
6.6.1	mac	0	2024-01-08	17:20:36	1	1	1	experiment	1	getValueVector			0		1	1	1	1	1	erasure	erasure		1	1	0	1	118	59		152	140	1		0	0	0	2	230	0			0				0.6999999999999999556	0	25	25	1		nan	201						140	155	125	215	245	1	wind	cloud	Planet1A.png	Ship1A.png	blank.png	fog0.png		0
6.6.1	mac	0	2024-01-08	17:20:36	1	1	1	experiment	1	getValueVector			0		1	1	1	1	1	erasure	erasure		1	1	0	1	119	57		152	140	1		0	0	0	2	230	0			0				0.6999999999999999556	0	25	25	1		nan	201						140	155	125	215	245	1	wind	cloud	Planet1A.png	Ship1A.png	blank.png	fog0.png		0
6.6.1	mac	0	2024-01-08	17:20:36	1	1	1	experiment	1	getValueVector			0		1	1	1	1	1	erasure	erasure		1	1	0	1	120	56		152	140	1		0	0	0	2	230	0			0				0.6999999999999999556	0	25	25	1		nan	201						140	155	125	215	245	1	wind	cloud	Planet1A.png	Ship1A.png	blank.png	fog0.png		0
6.6.1	mac	0	2024-01-08	17:20:36	1	1	1	experiment	1	getValueVector			0		1	1	1	1	1	erasure	erasure		1	1	0	1	121	54		152	140	1		0	0	0	2	230	0			0				0.6999999999999999556	0	25	25	1		nan	201						140	155	125	215	245	1	wind	cloud	Planet1A.png	Ship1A.png	blank.png	fog0.png		0
6.6.1	mac	0	2024-01-08	17:20:36	1	1	1	experiment	1	getValueVector			0		1	1	1	1	1	erasure	erasure		1	1	0	1	122	52		152	140	1		0	0	0	2	230	0			0				0.6999999999999999556	0	25	25	1		nan	201						140	155	125	215	245	1	wind	cloud	Planet1A.png	Ship1A.png	blank.png	fog0.png		0
6.6.1	mac	0	2024-01-08	17:20:36	1	1	1	experiment	1	getValueVector			0		1	1	1	1	1	erasure	erasure		1	1	0	1	123	51		152	140	1		0	0	0	2	230	0			0				0.6999999999999999556	0	25	25	1		nan	201						140	155	125	215	245	1	wind	cloud	Planet1A.png	Ship1A.png	blank.png	fog0.png		0
6.6.1	mac	0	2024-01-08	17:20:36	1	1	1	experiment	1	getValueVector			0		1	1	1	1	1	erasure	erasure		1	1	0	1	124	49		152	140	1		0	0	0	2	230	0			0				0.6999999999999999556	0	25	25	1		nan	201						140	155	125	215	245	1	wind	cloud	Planet1A.png	Ship1A.png	blank.png	fog0.png		0
6.6.1	mac	0	2024-01-08	17:20:36	1	1	1	experiment	1	getValueVector			0		1	1	1	1	1	erasure	erasure		1	1	0	1	125	48		152	140	1		0	0	0	2	230	0			0				0.6999999999999999556	0	25	25	1		nan	201						140	155	125	215	245	1	wind	cloud	Planet1A.png	Ship1A.png	blank.png	fog0.png		0
6.6.1	mac	0	2024-01-08	17:20:36	1	1	1	experiment	1	getValueVector			0		1	1	1	1	1	erasure	erasure		1	1	0	1	126	46.2343703703703639007		152	140	1		0	0	0	2	230	0			0				0.6999999999999999556	0	25	25	1		nan	201						140	155	125	215	245	1	wind	cloud	Planet1A.png	Ship1A.png	blank.png	fog0.png		0
6.6.1	mac	0	2024-01-08	17:20:36	1	1	1	experiment	1	getValueVector			0		1	1	1	1	1	erasure	erasure		1	1	0	1	127	44.4749629629629694705		152	140	1		0	0	0	2	230	0			0				0.6999999999999999556	0	25	25	1		nan	201						140	155	125	215	245	1	wind	cloud	Planet1A.png	Ship1A.png	blank.png	fog0.png		0
6.6.1	mac	0	2024-01-08	17:20:36	1	1	1	experiment	1	getValueVector			0		1	1	1	1	1	erasure	erasure		1	1	0	1	128	42.7280000000000086402		152	140	1		0	0	0	2	230	0			0				0.6999999999999999556	0	25	25	1		nan	201						140	155	125	215	245	1	wind	cloud	Planet1A.png	Ship1A.png	blank.png	fog0.png		0
6.6.1	mac	0	2024-01-08	17:20:36	1	1	1	experiment	1	getValueVector			0		1	1	1	1	1	erasure	erasure		1	1	0	1	129	40.9997037037036946572		152	140	1		0	0	0	2	230	0			0				0.6999999999999999556	0	25	25	1		nan	201						140	155	125	215	245	1	wind	cloud	Planet1A.png	Ship1A.png	blank.png	fog0.png		0
6.6.1	mac	0	2024-01-08	17:20:36	1	1	1	experiment	1	getValueVector			0		1	1	1	1	1	erasure	erasure		1	1	0	1	130	39.2962962962962905067		152	140	1		0	0	0	2	230	0			0				0.6999999999999999556	0	25	25	1		nan	201						140	155	125	215	245	1	wind	cloud	Planet1A.png	Ship1A.png	blank.png	fog0.png		0
6.6.1	mac	0	2024-01-08	17:20:36	1	1	1	experiment	1	getValueVector			0		1	1	1	1	1	erasure	erasure		1	1	0	1	131	37.6239999999999952252		152	140	1		0	0	0	2	230	0			0				0.6999999999999999556	0	25	25	1		nan	201						140	155	125	215	245	1	wind	cloud	Planet1A.png	Ship1A.png	blank.png	fog0.png		0
6.6.1	mac	0	2024-01-08	17:20:36	1	1	1	experiment	1	getValueVector			0		1	1	1	1	1	erasure	erasure		1	1	0	1	132	35.9890370370370362707		152	140	1		0	0	0	2	230	0			0				0.6999999999999999556	0	25	25	1		nan	201						140	155	125	215	245	1	wind	cloud	Planet1A.png	Ship1A.png	blank.png	fog0.png		0
6.6.1	mac	0	2024-01-08	17:20:36	1	1	1	experiment	1	getValueVector			0		1	1	1	1	1	erasure	erasure		1	1	0	1	133	34.397629629629633996		152	140	1		0	0	0	2	230	0			0				0.6999999999999999556	0	25	25	1		nan	201						140	155	125	215	245	1	wind	cloud	Planet1A.png	Ship1A.png	blank.png	fog0.png		0
6.6.1	mac	0	2024-01-08	17:20:36	1	1	1	experiment	1	getValueVector			0		1	1	1	1	1	erasure	erasure		1	1	0	1	134	32.8560000000000016485		152	140	1		0	0	0	2	230	0			0				0.6999999999999999556	0	25	25	1		nan	201						140	155	125	215	245	1	wind	cloud	Planet1A.png	Ship1A.png	blank.png	fog0.png		0
6.6.1	mac	0	2024-01-08	17:20:36	1	1	1	experiment	1	getValueVector			0		1	1	1	1	1	erasure	erasure		1	1	0	1	135	31.3703703703703666861		152	140	1		0	0	0	2	230	0			0				0.6999999999999999556	0	25	25	1		nan	201						140	155	125	215	245	1	wind	cloud	Planet1A.png	Ship1A.png	blank.png	fog0.png		0
6.6.1	mac	0	2024-01-08	17:20:36	1	1	1	experiment	1	getValueVector			0		1	1	1	1	1	erasure	erasure		1	1	0	1	136	29.9469629629629636725		152	140	1		0	0	0	2	230	0			0				0.6999999999999999556	0	25	25	1		nan	201						140	155	125	215	245	1	wind	cloud	Planet1A.png	Ship1A.png	blank.png	fog0.png		0
6.6.1	mac	0	2024-01-08	17:20:36	1	1	1	experiment	1	getValueVector			0		1	1	1	1	1	erasure	erasure		1	1	0	1	137	28.5920000000000023022		152	140	1		0	0	0	2	230	0			0				0.6999999999999999556	0	25	25	1		nan	201						140	155	125	215	245	1	wind	cloud	Planet1A.png	Ship1A.png	blank.png	fog0.png		0
6.6.1	mac	0	2024-01-08	17:20:36	1	1	1	experiment	1	getValueVector			0		1	1	1	1	1	erasure	erasure		1	1	0	1	138	27.3117037037037064806		152	140	1		0	0	0	2	230	0			0				0.6999999999999999556	0	25	25	1		nan	201						140	155	125	215	245	1	wind	cloud	Planet1A.png	Ship1A.png	blank.png	fog0.png		0
6.6.1	mac	0	2024-01-08	17:20:36	1	1	1	experiment	1	getValueVector			0		1	1	1	1	1	erasure	erasure		1	1	0	1	139	26.1122962962962930078		152	140	1		0	0	0	2	230	0			0				0.6999999999999999556	0	25	25	1		nan	201						140	155	125	215	245	1	wind	cloud	Planet1A.png	Ship1A.png	blank.png	fog0.png		0
6.6.1	mac	0	2024-01-08	17:20:36	1	1	1	experiment	1	getValueVector			0		1	1	1	1	1	erasure	erasure		1	1	0	1	140	25		152	140	1		0	0	0	2	230	0			0				0.6999999999999999556	0	25	25	1		nan	201						140	155	125	215	245	1	wind	cloud	Planet1A.png	Ship1A.png	blank.png	fog0.png		0
6.6.1	mac	0	2024-01-08	17:20:36	1	1	1	experiment	1	getValueVector			0		1	1	1	1	1	erasure	erasure		1	1	0	1	141	23.9789629629629601482		152	140	1		0	0	0	2	230	0			0				0.6999999999999999556	0	25	25	1		nan	201						140	155	125	215	245	1	wind	cloud	Planet1A.png	Ship1A.png	blank.png	fog0.png		0
6.6.1	mac	0	2024-01-08	17:20:36	1	1	1	experiment	1	getValueVector			0		1	1	1	1	1	erasure	erasure		1	1	0	1	142	23.0450370370370372086		152	140	1		0	0	0	2	230	0			0				0.6999999999999999556	0	25	25	1		nan	201						140	155	125	215	245	1	wind	cloud	Planet1A.png	Ship1A.png	blank.png	fog0.png		0
6.6.1	mac	0	2024-01-08	17:20:36	1	1	1	experiment	1	getValueVector			0		1	1	1	1	1	erasure	erasure		1	1	0	1	143	22.1920000000000001705		152	140	1		0	0	0	2	230	0			0				0.6999999999999999556	0	25	25	1		nan	201						140	155	125	215	245	1	wind	cloud	Planet1A.png	Ship1A.png	blank.png	fog0.png		0
6.6.1	mac	0	2024-01-08	17:20:36	1	1	1	experiment	1	getValueVector			0		1	1	1	1	1	erasure	erasure		1	1	0	1	144	21.4136296296296286812		152	140	1		0	0	0	2	230	0			0				0.6999999999999999556	0	25	25	1		nan	201						140	155	125	215	245	1	wind	cloud	Planet1A.png	Ship1A.png	blank.png	fog0.png		0
6.6.1	mac	0	2024-01-08	17:20:36	1	1	1	experiment	1	getValueVector			0		1	1	1	1	1	erasure	erasure		1	1	0	1	145	20.7037037037036988352		152	140	1		0	0	0	2	230	0			0				0.6999999999999999556	0	25	25	1		nan	201						140	155	125	215	245	1	wind	cloud	Planet1A.png	Ship1A.png	blank.png	fog0.png		0
6.6.1	mac	0	2024-01-08	17:20:36	1	1	1	experiment	1	getValueVector			0		1	1	1	1	1	erasure	erasure		1	1	0	1	146	20.0559999999999973852		152	140	1		0	0	0	2	230	0			0				0.6999999999999999556	0	25	25	1		nan	201						140	155	125	215	245	1	wind	cloud	Planet1A.png	Ship1A.png	blank.png	fog0.png		0
6.6.1	mac	0	2024-01-08	17:20:36	1	1	1	experiment	1	getValueVector			0		1	1	1	1	1	erasure	erasure		1	1	0	1	147	19.4642962962962968732		152	140	1		0	0	0	2	230	0			0				0.6999999999999999556	0	25	25	1		nan	201						140	155	125	215	245	1	wind	cloud	Planet1A.png	Ship1A.png	blank.png	fog0.png		0
6.6.1	mac	0	2024-01-08	17:20:36	1	1	1	experiment	1	getValueVector			0		1	1	1	1	1	erasure	erasure		1	1	0	1	148	18.9223703703703698409		152	140	1		0	0	0	2	230	0			0				0.6999999999999999556	0	25	25	1		nan	201						140	155	125	215	245	1	wind	cloud	Planet1A.png	Ship1A.png	blank.png	fog0.png		0
6.6.1	mac	0	2024-01-08	17:20:36	1	1	1	experiment	1	getValueVector			0		1	1	1	1	1	erasure	erasure		1	1	0	1	149	18.4239999999999994884		152	140	1		0	0	0	2	230	0			0				0.6999999999999999556	0	25	25	1		nan	201						140	155	125	215	245	1	wind	cloud	Planet1A.png	Ship1A.png	blank.png	fog0.png		0
6.6.1	mac	0	2024-01-08	17:20:36	1	1	1	experiment	1	getValueVector			0		1	1	1	1	1	erasure	erasure		1	1	0	1	150	17.9629629629629619103		152	140	1		0	0	0	2	230	0			0				0.6999999999999999556	0	25	25	1		nan	201						140	155	125	215	245	1	wind	cloud	Planet1A.png	Ship1A.png	blank.png	fog0.png		0
6.6.1	mac	0	2024-01-08	17:20:36	1	1	1	experiment	1	getValueVector			0		1	1	1	1	1	erasure	erasure		1	1	0	1	151	17.5330370370370367539		152	140	1		0	0	0	2	230	0			0				0.6999999999999999556	0	25	25	1		nan	201						140	155	125	215	245	1	wind	cloud	Planet1A.png	Ship1A.png	blank.png	fog0.png		0
6.6.1	mac	0	2024-01-08	17:20:36	1	1	1	experiment	1	getValueVector			0		1	1	1	1	1	erasure	erasure		1	1	0	1	152	17.1280000000000001137		152	140	1		0	0	0	2	230	0			0				0.6999999999999999556	0	25	25	1		nan	201						140	155	125	215	245	1	wind	cloud	Planet1A.png	Ship1A.png	blank.png	fog0.png		0
6.6.1	mac	0	2024-01-08	17:20:36	1	1	1	experiment	1	getValueVector			0		1	1	1	1	1	erasure	erasure		1	1	0	1	153	16.7416296296296280843		152	140	1		0	0	0	2	230	0			0				0.6999999999999999556	0	25	25	1		nan	201						140	155	125	215	245	1	wind	cloud	Planet1A.png	Ship1A.png	blank.png	fog0.png		0
6.6.1	mac	0	2024-01-08	17:20:36	1	1	1	experiment	1	getValueVector			0		1	1	1	1	1	erasure	erasure		1	1	0	1	154	16.3677037037037038658		152	140	1		0	0	0	2	230	0			0				0.6999999999999999556	0	25	25	1		nan	201						140	155	125	215	245	1	wind	cloud	Planet1A.png	Ship1A.png	blank.png	fog0.png		0
6.6.1	mac	0	2024-01-08	17:20:36	1	1	1	experiment	1	getValueVector			0		1	1	1	1	1	erasure	erasure		1	1	0	1	155	16		152	140	1		0	0	0	2	230	0			0				0.6999999999999999556	0	25	25	1		nan	201						140	155	125	215	245	1	wind	cloud	Planet1A.png	Ship1A.png	blank.png	fog0.png		0
6.6.1	mac	0	2024-01-08	17:20:36	1	1	1	experiment	1	getValueVector			0		1	1	1	1	1	erasure	erasure		1	1	0	1	156	15		152	140	1		0	0	0	2	230	0			0				0.6999999999999999556	0	25	25	1		nan	201						140	155	125	215	245	1	wind	cloud	Planet1A.png	Ship1A.png	blank.png	fog0.png		0
6.6.1	mac	0	2024-01-08	17:20:36	1	1	1	experiment	1	getValueVector			0		1	1	1	1	1	erasure	erasure		1	1	0	1	157	15		152	140	1		0	0	0	2	230	0			0				0.6999999999999999556	0	25	25	1		nan	201						140	155	125	215	245	1	wind	cloud	Planet1A.png	Ship1A.png	blank.png	fog0.png		0
6.6.1	mac	0	2024-01-08	17:20:36	1	1	1	experiment	1	getValueVector			0		1	1	1	1	1	erasure	erasure		1	1	0	1	158	14		152	140	1		0	0	0	2	230	0			0				0.6999999999999999556	0	25	25	1		nan	201						140	155	125	215	245	1	wind	cloud	Planet1A.png	Ship1A.png	blank.png	fog0.png		0
6.6.1	mac	0	2024-01-08	17:20:36	1	1	1	experiment	1	getValueVector			0		1	1	1	1	1	erasure	erasure		1	1	0	1	159	14		152	140	1		0	0	0	2	230	0			0				0.6999999999999999556	0	25	25	1		nan	201						140	155	125	215	245	1	wind	cloud	Planet1A.png	Ship1A.png	blank.png	fog0.png		0
6.6.1	mac	0	2024-01-08	17:20:36	1	1	1	experiment	1	getValueVector			0		1	1	1	1	1	erasure	erasure		1	1	0	1	160	13		152	140	1		0	0	0	2	230	0			0				0.6999999999999999556	0	25	25	1		nan	201						140	155	125	215	245	1	wind	cloud	Planet1A.png	Ship1A.png	blank.png	fog0.png		0
6.6.1	mac	0	2024-01-08	17:20:36	1	1	1	experiment	1	getValueVector			0		1	1	1	1	1	erasure	erasure		1	1	0	1	161	13		152	140	1		0	0	0	2	230	0			0				0.6999999999999999556	0	25	25	1		nan	201						140	155	125	215	245	1	wind	cloud	Planet1A.png	Ship1A.png	blank.png	fog0.png		0
6.6.1	mac	0	2024-01-08	17:20:36	1	1	1	experiment	1	getValueVector			0		1	1	1	1	1	erasure	erasure		1	1	0	1	162	13		152	140	1		0	0	0	2	230	0			0				0.6999999999999999556	0	25	25	1		nan	201						140	155	125	215	245	1	wind	cloud	Planet1A.png	Ship1A.png	blank.png	fog0.png		0
6.6.1	mac	0	2024-01-08	17:20:36	1	1	1	experiment	1	getValueVector			0		1	1	1	1	1	erasure	erasure		1	1	0	1	163	13		152	140	1		0	0	0	2	230	0			0				0.6999999999999999556	0	25	25	1		nan	201						140	155	125	215	245	1	wind	cloud	Planet1A.png	Ship1A.png	blank.png	fog0.png		0
6.6.1	mac	0	2024-01-08	17:20:36	1	1	1	experiment	1	getValueVector			0		1	1	1	1	1	erasure	erasure		1	1	0	1	164	12		152	140	1		0	0	0	2	230	0			0				0.6999999999999999556	0	25	25	1		nan	201						140	155	125	215	245	1	wind	cloud	Planet1A.png	Ship1A.png	blank.png	fog0.png		0
6.6.1	mac	0	2024-01-08	17:20:36	1	1	1	experiment	1	getValueVector			0		1	1	1	1	1	erasure	erasure		1	1	0	1	165	12		152	140	1		0	0	0	2	230	0			0				0.6999999999999999556	0	25	25	1		nan	201						140	155	125	215	245	1	wind	cloud	Planet1A.png	Ship1A.png	blank.png	fog0.png		0
6.6.1	mac	0	2024-01-08	17:20:36	1	1	1	experiment	1	getValueVector			0		1	1	1	1	1	erasure	erasure		1	1	0	1	166	12		152	140	1		0	0	0	2	230	0			0				0.6999999999999999556	0	25	25	1		nan	201						140	155	125	215	245	1	wind	cloud	Planet1A.png	Ship1A.png	blank.png	fog0.png		0
6.6.1	mac	0	2024-01-08	17:20:36	1	1	1	experiment	1	getValueVector			0		1	1	1	1	1	erasure	erasure		1	1	0	1	167	12		152	140	1		0	0	0	2	230	0			0				0.6999999999999999556	0	25	25	1		nan	201						140	155	125	215	245	1	wind	cloud	Planet1A.png	Ship1A.png	blank.png	fog0.png		0
6.6.1	mac	0	2024-01-08	17:20:36	1	1	1	experiment	1	getValueVector			0		1	1	1	1	1	erasure	erasure		1	1	0	1	168	11		152	140	1		0	0	0	2	230	0			0				0.6999999999999999556	0	25	25	1		nan	201						140	155	125	215	245	1	wind	cloud	Planet1A.png	Ship1A.png	blank.png	fog0.png		0
6.6.1	mac	0	2024-01-08	17:20:36	1	1	1	experiment	1	getValueVector			0		1	1	1	1	1	erasure	erasure		1	1	0	1	169	11		152	140	1		0	0	0	2	230	0			0				0.6999999999999999556	0	25	25	1		nan	201						140	155	125	215	245	1	wind	cloud	Planet1A.png	Ship1A.png	blank.png	fog0.png		0
6.6.1	mac	0	2024-01-08	17:20:36	1	1	1	experiment	1	getValueVector			0		1	1	1	1	1	erasure	erasure		1	1	0	1	170	11		152	140	1		0	0	0	2	230	0			0				0.6999999999999999556	0	25	25	1		nan	201						140	155	125	215	245	1	wind	cloud	Planet1A.png	Ship1A.png	blank.png	fog0.png		0
6.6.1	mac	0	2024-01-08	17:20:36	1	1	1	experiment	1	getValueVector			0		1	1	1	1	1	erasure	erasure		1	1	0	1	171	11		152	140	1		0	0	0	2	230	0			0				0.6999999999999999556	0	25	25	1		nan	201						140	155	125	215	245	1	wind	cloud	Planet1A.png	Ship1A.png	blank.png	fog0.png		0
6.6.1	mac	0	2024-01-08	17:20:36	1	1	1	experiment	1	getValueVector			0		1	1	1	1	1	erasure	erasure		1	1	0	1	172	11		152	140	1		0	0	0	2	230	0			0				0.6999999999999999556	0	25	25	1		nan	201						140	155	125	215	245	1	wind	cloud	Planet1A.png	Ship1A.png	blank.png	fog0.png		0
6.6.1	mac	0	2024-01-08	17:20:36	1	1	1	experiment	1	getValueVector			0		1	1	1	1	1	erasure	erasure		1	1	0	1	173	11		152	140	1		0	0	0	2	230	0			0				0.6999999999999999556	0	25	25	1		nan	201						140	155	125	215	245	1	wind	cloud	Planet1A.png	Ship1A.png	blank.png	fog0.png		0
6.6.1	mac	0	2024-01-08	17:20:36	1	1	1	experiment	1	getValueVector			0		1	1	1	1	1	erasure	erasure		1	1	0	1	174	11		152	140	1		0	0	0	2	230	0			0				0.6999999999999999556	0	25	25	1		nan	201						140	155	125	215	245	1	wind	cloud	Planet1A.png	Ship1A.png	blank.png	fog0.png		0
6.6.1	mac	0	2024-01-08	17:20:36	1	1	1	experiment	1	getValueVector			0		1	1	1	1	1	erasure	erasure		1	1	0	1	175	11		152	140	1		0	0	0	2	230	0			0				0.6999999999999999556	0	25	25	1		nan	201						140	155	125	215	245	1	wind	cloud	Planet1A.png	Ship1A.png	blank.png	fog0.png		0
6.6.1	mac	0	2024-01-08	17:20:36	1	1	1	experiment	1	getValueVector			0		1	1	1	1	1	erasure	erasure		1	1	0	1	176	11		152	140	1		0	0	0	2	230	0			0				0.6999999999999999556	0	25	25	1		nan	201						140	155	125	215	245	1	wind	cloud	Planet1A.png	Ship1A.png	blank.png	fog0.png		0
6.6.1	mac	0	2024-01-08	17:20:36	1	1	1	experiment	1	getValueVector			0		1	1	1	1	1	erasure	erasure		1	1	0	1	177	11		152	140	1		0	0	0	2	230	0			0				0.6999999999999999556	0	25	25	1		nan	201						140	155	125	215	245	1	wind	cloud	Planet1A.png	Ship1A.png	blank.png	fog0.png		0
6.6.1	mac	0	2024-01-08	17:20:36	1	1	1	experiment	1	getValueVector			0		1	1	1	1	1	erasure	erasure		1	1	0	1	178	11		152	140	1		0	0	0	2	230	0			0				0.6999999999999999556	0	25	25	1		nan	201						140	155	125	215	245	1	wind	cloud	Planet1A.png	Ship1A.png	blank.png	fog0.png		0
6.6.1	mac	0	2024-01-08	17:20:36	1	1	1	experiment	1	getValueVector			0		1	1	1	1	1	erasure	erasure		1	1	0	1	179	11		152	140	1		0	0	0	2	230	0			0				0.6999999999999999556	0	25	25	1		nan	201						140	155	125	215	245	1	wind	cloud	Planet1A.png	Ship1A.png	blank.png	fog0.png		0
6.6.1	mac	0	2024-01-08	17:20:36	1	1	1	experiment	1	getValueVector			0		1	1	1	1	1	erasure	erasure		1	1	0	1	180	11		152	140	1		0	0	0	2	230	0			0				0.6999999999999999556	0	25	25	1		nan	201						140	155	125	215	245	1	wind	cloud	Planet1A.png	Ship1A.png	blank.png	fog0.png		0
6.6.1	mac	0	2024-01-08	17:20:36	1	1	1	experiment	1	getValueVector			0		1	1	1	1	1	erasure	erasure		1	1	0	1	181	12		152	140	1		0	0	0	2	230	0			0				0.6999999999999999556	0	25	25	1		nan	201						140	155	125	215	245	1	wind	cloud	Planet1A.png	Ship1A.png	blank.png	fog0.png		0
6.6.1	mac	0	2024-01-08	17:20:36	1	1	1	experiment	1	getValueVector			0		1	1	1	1	1	erasure	erasure		1	1	0	1	182	12		152	140	1		0	0	0	2	230	0			0				0.6999999999999999556	0	25	25	1		nan	201						140	155	125	215	245	1	wind	cloud	Planet1A.png	Ship1A.png	blank.png	fog0.png		0
6.6.1	mac	0	2024-01-08	17:20:36	1	1	1	experiment	1	getValueVector			0		1	1	1	1	1	erasure	erasure		1	1	0	1	183	12		152	140	1		0	0	0	2	230	0			0				0.6999999999999999556	0	25	25	1		nan	201						140	155	125	215	245	1	wind	cloud	Planet1A.png	Ship1A.png	blank.png	fog0.png		0
6.6.1	mac	0	2024-01-08	17:20:36	1	1	1	experiment	1	getValueVector			0		1	1	1	1	1	erasure	erasure		1	1	0	1	184	12		152	140	1		0	0	0	2	230	0			0				0.6999999999999999556	0	25	25	1		nan	201						140	155	125	215	245	1	wind	cloud	Planet1A.png	Ship1A.png	blank.png	fog0.png		0
6.6.1	mac	0	2024-01-08	17:20:36	1	1	1	experiment	1	getValueVector			0		1	1	1	1	1	erasure	erasure		1	1	0	1	185	12		152	140	1		0	0	0	2	230	0			0				0.6999999999999999556	0	25	25	1		nan	201						140	155	125	215	245	1	wind	cloud	Planet1A.png	Ship1A.png	blank.png	fog0.png		0
6.6.1	mac	0	2024-01-08	17:20:36	1	1	1	experiment	1	getValueVector			0		1	1	1	1	1	erasure	erasure		1	1	0	1	186	12		152	140	1		0	0	0	2	230	0			0				0.6999999999999999556	0	25	25	1		nan	201						140	155	125	215	245	1	wind	cloud	Planet1A.png	Ship1A.png	blank.png	fog0.png		0
6.6.1	mac	0	2024-01-08	17:20:36	1	1	1	experiment	1	getValueVector			0		1	1	1	1	1	erasure	erasure		1	1	0	1	187	12		152	140	1		0	0	0	2	230	0			0				0.6999999999999999556	0	25	25	1		nan	201						140	155	125	215	245	1	wind	cloud	Planet1A.png	Ship1A.png	blank.png	fog0.png		0
6.6.1	mac	0	2024-01-08	17:20:36	1	1	1	experiment	1	getValueVector			0		1	1	1	1	1	erasure	erasure		1	1	0	1	188	12		152	140	1		0	0	0	2	230	0			0				0.6999999999999999556	0	25	25	1		nan	201						140	155	125	215	245	1	wind	cloud	Planet1A.png	Ship1A.png	blank.png	fog0.png		0
6.6.1	mac	0	2024-01-08	17:20:36	1	1	1	experiment	1	getValueVector			0		1	1	1	1	1	erasure	erasure		1	1	0	1	189	13		152	140	1		0	0	0	2	230	0			0				0.6999999999999999556	0	25	25	1		nan	201						140	155	125	215	245	1	wind	cloud	Planet1A.png	Ship1A.png	blank.png	fog0.png		0
6.6.1	mac	0	2024-01-08	17:20:36	1	1	1	experiment	1	getValueVector			0		1	1	1	1	1	erasure	erasure		1	1	0	1	190	13		152	140	1		0	0	0	2	230	0			0				0.6999999999999999556	0	25	25	1		nan	201						140	155	125	215	245	1	wind	cloud	Planet1A.png	Ship1A.png	blank.png	fog0.png		0
6.6.1	mac	0	2024-01-08	17:20:36	1	1	1	experiment	1	getValueVector			0		1	1	1	1	1	erasure	erasure		1	1	0	1	191	13		152	140	1		0	0	0	2	230	0			0				0.6999999999999999556	0	25	25	1		nan	201						140	155	125	215	245	1	wind	cloud	Planet1A.png	Ship1A.png	blank.png	fog0.png		0
6.6.1	mac	0	2024-01-08	17:20:36	1	1	1	experiment	1	getValueVector			0		1	1	1	1	1	erasure	erasure		1	1	0	1	192	13		152	140	1		0	0	0	2	230	0			0				0.6999999999999999556	0	25	25	1		nan	201						140	155	125	215	245	1	wind	cloud	Planet1A.png	Ship1A.png	blank.png	fog0.png		0
6.6.1	mac	0	2024-01-08	17:20:36	1	1	1	experiment	1	getValueVector			0		1	1	1	1	1	erasure	erasure		1	1	0	1	193	13		152	140	1		0	0	0	2	230	0			0				0.6999999999999999556	0	25	25	1		nan	201						140	155	125	215	245	1	wind	cloud	Planet1A.png	Ship1A.png	blank.png	fog0.png		0
6.6.1	mac	0	2024-01-08	17:20:36	1	1	1	experiment	1	getValueVector			0		1	1	1	1	1	erasure	erasure		1	1	0	1	194	13		152	140	1		0	0	0	2	230	0			0				0.6999999999999999556	0	25	25	1		nan	201						140	155	125	215	245	1	wind	cloud	Planet1A.png	Ship1A.png	blank.png	fog0.png		0
6.6.1	mac	0	2024-01-08	17:20:36	1	1	1	experiment	1	getValueVector			0		1	1	1	1	1	erasure	erasure		1	1	0	1	195	13		152	140	1		0	0	0	2	230	0			0				0.6999999999999999556	0	25	25	1		nan	201						140	155	125	215	245	1	wind	cloud	Planet1A.png	Ship1A.png	blank.png	fog0.png		0
6.6.1	mac	0	2024-01-08	17:20:36	1	1	1	experiment	1	getValueVector			0		1	1	1	1	1	erasure	erasure		1	1	0	1	196	13		152	140	1		0	0	0	2	230	0			0				0.6999999999999999556	0	25	25	1		nan	201						140	155	125	215	245	1	wind	cloud	Planet1A.png	Ship1A.png	blank.png	fog0.png		0
6.6.1	mac	0	2024-01-08	17:20:36	1	1	1	experiment	1	getValueVector			0		1	1	1	1	1	erasure	erasure		1	1	0	1	197	13		152	140	1		0	0	0	2	230	0			0				0.6999999999999999556	0	25	25	1		nan	201						140	155	125	215	245	1	wind	cloud	Planet1A.png	Ship1A.png	blank.png	fog0.png		0
6.6.1	mac	0	2024-01-08	17:20:36	1	1	1	experiment	1	getValueVector			0		1	1	1	1	1	erasure	erasure		1	1	0	1	198	14		152	140	1		0	0	0	2	230	0			0				0.6999999999999999556	0	25	25	1		nan	201						140	155	125	215	245	1	wind	cloud	Planet1A.png	Ship1A.png	blank.png	fog0.png		0
6.6.1	mac	0	2024-01-08	17:20:36	1	1	1	experiment	1	getValueVector			0		1	1	1	1	1	erasure	erasure		1	1	0	1	199	14		152	140	1		0	0	0	2	230	0			0				0.6999999999999999556	0	25	25	1		nan	201						140	155	125	215	245	1	wind	cloud	Planet1A.png	Ship1A.png	blank.png	fog0.png		0
6.6.1	mac	0	2024-01-08	17:20:36	1	1	1	experiment	1	getValueVector			0		1	1	1	1	1	erasure	erasure		1	1	0	1	200	14		152	140	1		0	0	0	2	230	0			0				0.6999999999999999556	0	25	25	1		nan	201						140	155	125	215	245	1	wind	cloud	Planet1A.png	Ship1A.png	blank.png	fog0.png		0
6.6.1	mac	0	2024-01-08	17:20:36	1	1	1	experiment	1	getValueVector			0		1	1	1	1	1	erasure	erasure		1	1	0	1	201	14		152	140	1		0	0	0	2	230	0			0				0.6999999999999999556	0	25	25	1		nan	201						140	155	125	215	245	1	wind	cloud	Planet1A.png	Ship1A.png	blank.png	fog0.png		0
6.6.1	mac	0	2024-01-08	17:20:36	1	1	1	experiment	1	getValueVector			0		1	1	1	1	1	erasure	erasure		1	1	0	1	202	14		152	140	1		0	0	0	2	230	0			0				0.6999999999999999556	0	25	25	1		nan	201						140	155	125	215	245	1	wind	cloud	Planet1A.png	Ship1A.png	blank.png	fog0.png		0
6.6.1	mac	0	2024-01-08	17:20:36	1	1	1	experiment	1	getValueVector			0		1	1	1	1	1	erasure	erasure		1	1	0	1	203	14		152	140	1		0	0	0	2	230	0			0				0.6999999999999999556	0	25	25	1		nan	201						140	155	125	215	245	1	wind	cloud	Planet1A.png	Ship1A.png	blank.png	fog0.png		0
6.6.1	mac	0	2024-01-08	17:20:36	1	1	1	experiment	1	getValueVector			0		1	1	1	1	1	erasure	erasure		1	1	0	1	204	14		152	140	1		0	0	0	2	230	0			0				0.6999999999999999556	0	25	25	1		nan	201						140	155	125	215	245	1	wind	cloud	Planet1A.png	Ship1A.png	blank.png	fog0.png		0
6.6.1	mac	0	2024-01-08	17:20:36	1	1	1	experiment	1	getValueVector			0		1	1	1	1	1	erasure	erasure		1	1	0	1	205	14		152	140	1		0	0	0	2	230	0			0				0.6999999999999999556	0	25	25	1		nan	201						140	155	125	215	245	1	wind	cloud	Planet1A.png	Ship1A.png	blank.png	fog0.png		0
6.6.1	mac	0	2024-01-08	17:20:36	1	1	1	experiment	1	getValueVector			0		1	1	1	1	1	erasure	erasure		1	1	0	1	206	14		152	140	1		0	0	0	2	230	0			0				0.6999999999999999556	0	25	25	1		nan	201						140	155	125	215	245	1	wind	cloud	Planet1A.png	Ship1A.png	blank.png	fog0.png		0
6.6.1	mac	0	2024-01-08	17:20:36	1	1	1	experiment	1	getValueVector			0		1	1	1	1	1	erasure	erasure		1	1	0	1	207	14		152	140	1		0	0	0	2	230	0			0				0.6999999999999999556	0	25	25	1		nan	201						140	155	125	215	245	1	wind	cloud	Planet1A.png	Ship1A.png	blank.png	fog0.png		0
6.6.1	mac	0	2024-01-08	17:20:36	1	1	1	experiment	1	getValueVector			0		1	1	1	1	1	erasure	erasure		1	1	0	1	208	14		152	140	1		0	0	0	2	230	0			0				0.6999999999999999556	0	25	25	1		nan	201						140	155	125	215	245	1	wind	cloud	Planet1A.png	Ship1A.png	blank.png	fog0.png		0
6.6.1	mac	0	2024-01-08	17:20:36	1	1	1	experiment	1	getValueVector			0		1	1	1	1	1	erasure	erasure		1	1	0	1	209	14		152	140	1		0	0	0	2	230	0			0				0.6999999999999999556	0	25	25	1		nan	201						140	155	125	215	245	1	wind	cloud	Planet1A.png	Ship1A.png	blank.png	fog0.png		0
6.6.1	mac	0	2024-01-08	17:20:36	1	1	1	experiment	1	getValueVector			0		1	1	1	1	1	erasure	erasure		1	1	0	1	210	14		152	140	1		0	0	0	2	230	0			0				0.6999999999999999556	0	25	25	1		nan	201						140	155	125	215	245	1	wind	cloud	Planet1A.png	Ship1A.png	blank.png	fog0.png		0
6.6.1	mac	0	2024-01-08	17:20:36	1	1	1	experiment	1	getValueVector			0		1	1	1	1	1	erasure	erasure		1	1	0	1	211	13		152	140	1		0	0	0	2	230	0			0				0.6999999999999999556	0	25	25	1		nan	201						140	155	125	215	245	1	wind	cloud	Planet1A.png	Ship1A.png	blank.png	fog0.png		0
6.6.1	mac	0	2024-01-08	17:20:36	1	1	1	experiment	1	getValueVector			0		1	1	1	1	1	erasure	erasure		1	1	0	1	212	13		152	140	1		0	0	0	2	230	0			0				0.6999999999999999556	0	25	25	1		nan	201						140	155	125	215	245	1	wind	cloud	Planet1A.png	Ship1A.png	blank.png	fog0.png		0
6.6.1	mac	0	2024-01-08	17:20:36	1	1	1	experiment	1	getValueVector			0		1	1	1	1	1	erasure	erasure		1	1	0	1	213	13		152	140	1		0	0	0	2	230	0			0				0.6999999999999999556	0	25	25	1		nan	201						140	155	125	215	245	1	wind	cloud	Planet1A.png	Ship1A.png	blank.png	fog0.png		0
6.6.1	mac	0	2024-01-08	17:20:36	1	1	1	experiment	1	getValueVector			0		1	1	1	1	1	erasure	erasure		1	1	0	1	214	13		152	140	1		0	0	0	2	230	0			0				0.6999999999999999556	0	25	25	1		nan	201						140	155	125	215	245	1	wind	cloud	Planet1A.png	Ship1A.png	blank.png	fog0.png		0
6.6.1	mac	0	2024-01-08	17:20:36	1	1	1	experiment	1	getValueVector			0		1	1	1	1	1	erasure	erasure		1	1	0	1	215	13		152	140	1		0	0	0	2	230	0			0				0.6999999999999999556	0	25	25	1		nan	201						140	155	125	215	245	1	wind	cloud	Planet1A.png	Ship1A.png	blank.png	fog0.png		0
6.6.1	mac	0	2024-01-08	17:20:36	1	1	1	experiment	1	getValueVector			0		1	1	1	1	1	erasure	erasure		1	1	0	1	216	13		152	140	1		0	0	0	2	230	0			0				0.6999999999999999556	0	25	25	1		nan	201						140	155	125	215	245	1	wind	cloud	Planet1A.png	Ship1A.png	blank.png	fog0.png		0
6.6.1	mac	0	2024-01-08	17:20:36	1	1	1	experiment	1	getValueVector			0		1	1	1	1	1	erasure	erasure		1	1	0	1	217	13		152	140	1		0	0	0	2	230	0			0				0.6999999999999999556	0	25	25	1		nan	201						140	155	125	215	245	1	wind	cloud	Planet1A.png	Ship1A.png	blank.png	fog0.png		0
6.6.1	mac	0	2024-01-08	17:20:36	1	1	1	experiment	1	getValueVector			0		1	1	1	1	1	erasure	erasure		1	1	0	1	218	12		152	140	1		0	0	0	2	230	0			0				0.6999999999999999556	0	25	25	1		nan	201						140	155	125	215	245	1	wind	cloud	Planet1A.png	Ship1A.png	blank.png	fog0.png		0
6.6.1	mac	0	2024-01-08	17:20:36	1	1	1	experiment	1	getValueVector			0		1	1	1	1	1	erasure	erasure		1	1	0	1	219	12		152	140	1		0	0	0	2	230	0			0				0.6999999999999999556	0	25	25	1		nan	201						140	155	125	215	245	1	wind	cloud	Planet1A.png	Ship1A.png	blank.png	fog0.png		0
6.6.1	mac	0	2024-01-08	17:20:36	1	1	1	experiment	1	getValueVector			0		1	1	1	1	1	erasure	erasure		1	1	0	1	220	12		152	140	1		0	0	0	2	230	0			0				0.6999999999999999556	0	25	25	1		nan	201						140	155	125	215	245	1	wind	cloud	Planet1A.png	Ship1A.png	blank.png	fog0.png		0
6.6.1	mac	0	2024-01-08	17:20:36	1	1	1	experiment	1	getValueVector			0		1	1	1	1	1	erasure	erasure		1	1	0	1	221	12		152	140	1		0	0	0	2	230	0			0				0.6999999999999999556	0	25	25	1		nan	201						140	155	125	215	245	1	wind	cloud	Planet1A.png	Ship1A.png	blank.png	fog0.png		0
6.6.1	mac	0	2024-01-08	17:20:36	1	1	1	experiment	1	getValueVector			0		1	1	1	1	1	erasure	erasure		1	1	0	1	222	11		152	140	1		0	0	0	2	230	0			0				0.6999999999999999556	0	25	25	1		nan	201						140	155	125	215	245	1	wind	cloud	Planet1A.png	Ship1A.png	blank.png	fog0.png		0
6.6.1	mac	0	2024-01-08	17:20:36	1	1	1	experiment	1	getValueVector			0		1	1	1	1	1	erasure	erasure		1	1	0	1	223	11		152	140	1		0	0	0	2	230	0			0				0.6999999999999999556	0	25	25	1		nan	201						140	155	125	215	245	1	wind	cloud	Planet1A.png	Ship1A.png	blank.png	fog0.png		0
6.6.1	mac	0	2024-01-08	17:20:36	1	1	1	experiment	1	getValueVector			0		1	1	1	1	1	erasure	erasure		1	1	0	1	224	11		152	140	1		0	0	0	2	230	0			0				0.6999999999999999556	0	25	25	1		nan	201						140	155	125	215	245	1	wind	cloud	Planet1A.png	Ship1A.png	blank.png	fog0.png		0
6.6.1	mac	0	2024-01-08	17:20:36	1	1	1	experiment	1	getValueVector			0		1	1	1	1	1	erasure	erasure		1	1	0	1	225	11		152	140	1		0	0	0	2	230	0			0				0.6999999999999999556	0	25	25	1		nan	201						140	155	125	215	245	1	wind	cloud	Planet1A.png	Ship1A.png	blank.png	fog0.png		0
6.6.1	mac	0	2024-01-08	17:20:36	1	1	1	experiment	1	getValueVector			0		1	1	1	1	1	erasure	erasure		1	1	0	1	226	10		152	140	1		0	0	0	2	230	0			0				0.6999999999999999556	0	25	25	1		nan	201						140	155	125	215	245	1	wind	cloud	Planet1A.png	Ship1A.png	blank.png	fog0.png		0
6.6.1	mac	0	2024-01-08	17:20:36	1	1	1	experiment	1	getValueVector			0		1	1	1	1	1	erasure	erasure		1	1	0	1	227	10		152	140	1		0	0	0	2	230	0			0				0.6999999999999999556	0	25	25	1		nan	201						140	155	125	215	245	1	wind	cloud	Planet1A.png	Ship1A.png	blank.png	fog0.png		0
6.6.1	mac	0	2024-01-08	17:20:36	1	1	1	experiment	1	getValueVector			0		1	1	1	1	1	erasure	erasure		1	1	0	1	228	10		152	140	1		0	0	0	2	230	0			0				0.6999999999999999556	0	25	25	1		nan	201						140	155	125	215	245	1	wind	cloud	Planet1A.png	Ship1A.png	blank.png	fog0.png		0
6.6.1	mac	0	2024-01-08	17:20:36	1	1	1	experiment	1	getValueVector			0		1	1	1	1	1	erasure	erasure		1	1	0	1	229	9		152	140	1		0	0	0	2	230	0			0				0.6999999999999999556	0	25	25	1		nan	201						140	155	125	215	245	1	wind	cloud	Planet1A.png	Ship1A.png	blank.png	fog0.png		0
6.6.1	mac	0	2024-01-08	17:20:36	1	1	1	experiment	1	getValueVector			0		1	1	1	1	1	erasure	erasure		1	1	0	1	230	9		152	140	1		0	0	0	2	230	0			0				0.6999999999999999556	0	25	25	1		nan	201						140	155	125	215	245	1	wind	cloud	Planet1A.png	Ship1A.png	blank.png	fog0.png		0
6.6.1	mac	0	2024-01-08	17:20:36	1	1	1	experiment	1	getValueVector			0		1	1	1	1	1	erasure	erasure		1	1	0	1	231	9		152	140	1		0	0	0	2	230	0			0				0.6999999999999999556	0	25	25	1		nan	201						140	155	125	215	245	1	wind	cloud	Planet1A.png	Ship1A.png	blank.png	fog0.png		0
6.6.1	mac	0	2024-01-08	17:20:36	1	1	1	experiment	1	getValueVector			0		1	1	1	1	1	erasure	erasure		1	1	0	1	232	8		152	140	1		0	0	0	2	230	0			0				0.6999999999999999556	0	25	25	1		nan	201						140	155	125	215	245	1	wind	cloud	Planet1A.png	Ship1A.png	blank.png	fog0.png		0
6.6.1	mac	0	2024-01-08	17:20:36	1	1	1	experiment	1	getValueVector			0		1	1	1	1	1	erasure	erasure		1	1	0	1	233	8		152	140	1		0	0	0	2	230	0			0				0.6999999999999999556	0	25	25	1		nan	201						140	155	125	215	245	1	wind	cloud	Planet1A.png	Ship1A.png	blank.png	fog0.png		0
6.6.1	mac	0	2024-01-08	17:20:36	1	1	1	experiment	1	getValueVector			0		1	1	1	1	1	erasure	erasure		1	1	0	1	234	8		152	140	1		0	0	0	2	230	0			0				0.6999999999999999556	0	25	25	1		nan	201						140	155	125	215	245	1	wind	cloud	Planet1A.png	Ship1A.png	blank.png	fog0.png		0
6.6.1	mac	0	2024-01-08	17:20:36	1	1	1	experiment	1	getValueVector			0		1	1	1	1	1	erasure	erasure		1	1	0	1	235	7		152	140	1		0	0	0	2	230	0			0				0.6999999999999999556	0	25	25	1		nan	201						140	155	125	215	245	1	wind	cloud	Planet1A.png	Ship1A.png	blank.png	fog0.png		0
6.6.1	mac	0	2024-01-08	17:20:36	1	1	1	experiment	1	getValueVector			0		1	1	1	1	1	erasure	erasure		1	1	0	1	236	7		152	140	1		0	0	0	2	230	0			0				0.6999999999999999556	0	25	25	1		nan	201						140	155	125	215	245	1	wind	cloud	Planet1A.png	Ship1A.png	blank.png	fog0.png		0
6.6.1	mac	0	2024-01-08	17:20:36	1	1	1	experiment	1	getValueVector			0		1	1	1	1	1	erasure	erasure		1	1	0	1	237	7		152	140	1		0	0	0	2	230	0			0				0.6999999999999999556	0	25	25	1		nan	201						140	155	125	215	245	1	wind	cloud	Planet1A.png	Ship1A.png	blank.png	fog0.png		0
6.6.1	mac	0	2024-01-08	17:20:36	1	1	1	experiment	1	getValueVector			0		1	1	1	1	1	erasure	erasure		1	1	0	1	238	6		152	140	1		0	0	0	2	230	0			0				0.6999999999999999556	0	25	25	1		nan	201						140	155	125	215	245	1	wind	cloud	Planet1A.png	Ship1A.png	blank.png	fog0.png		0
6.6.1	mac	0	2024-01-08	17:20:36	1	1	1	experiment	1	getValueVector			0		1	1	1	1	1	erasure	erasure		1	1	0	1	239	6		152	140	1		0	0	0	2	230	0			0				0.6999999999999999556	0	25	25	1		nan	201						140	155	125	215	245	1	wind	cloud	Planet1A.png	Ship1A.png	blank.png	fog0.png		0
6.6.1	mac	0	2024-01-08	17:20:36	1	1	1	experiment	1	getValueVector			0		1	1	1	1	1	erasure	erasure		1	1	0	1	240	6		152	140	1		0	0	0	2	230	0			0				0.6999999999999999556	0	25	25	1		nan	201						140	155	125	215	245	1	wind	cloud	Planet1A.png	Ship1A.png	blank.png	fog0.png		0
6.6.1	mac	0	2024-01-08	17:20:36	1	1	1	experiment	1	getValueVector			0		1	1	1	1	1	erasure	erasure		1	1	0	1	241	5		152	140	1		0	0	0	2	230	0			0				0.6999999999999999556	0	25	25	1		nan	201						140	155	125	215	245	1	wind	cloud	Planet1A.png	Ship1A.png	blank.png	fog0.png		0
6.6.1	mac	0	2024-01-08	17:20:36	1	1	1	experiment	1	getValueVector			0		1	1	1	1	1	erasure	erasure		1	1	0	1	242	5		152	140	1		0	0	0	2	230	0			0				0.6999999999999999556	0	25	25	1		nan	201						140	155	125	215	245	1	wind	cloud	Planet1A.png	Ship1A.png	blank.png	fog0.png		0
6.6.1	mac	0	2024-01-08	17:20:36	1	1	1	experiment	1	getValueVector			0		1	1	1	1	1	erasure	erasure		1	1	0	1	243	5		152	140	1		0	0	0	2	230	0			0				0.6999999999999999556	0	25	25	1		nan	201						140	155	125	215	245	1	wind	cloud	Planet1A.png	Ship1A.png	blank.png	fog0.png		0
6.6.1	mac	0	2024-01-08	17:20:36	1	1	1	experiment	1	getValueVector			0		1	1	1	1	1	erasure	erasure		1	1	0	1	244	4		152	140	1		0	0	0	2	230	0			0				0.6999999999999999556	0	25	25	1		nan	201						140	155	125	215	245	1	wind	cloud	Planet1A.png	Ship1A.png	blank.png	fog0.png		0
6.6.1	mac	0	2024-01-08	17:20:36	1	1	1	experiment	1	getValueVector			0		1	1	1	1	1	erasure	erasure		1	1	0	1	245	4		152	140	1		0	0	0	2	230	0			0				0.6999999999999999556	0	25	25	1		nan	201						140	155	125	215	245	1	wind	cloud	Planet1A.png	Ship1A.png	blank.png	fog0.png		0
6.6.1	mac	0	2024-01-08	17:20:36	1	1	1	experiment	1	getValueVector			0		1	1	1	1	1	erasure	erasure		1	1	0	1	246	4		152	140	1		0	0	0	2	230	0			0				0.6999999999999999556	0	25	25	1		nan	201						140	155	125	215	245	1	wind	cloud	Planet1A.png	Ship1A.png	blank.png	fog0.png		0
6.6.1	mac	0	2024-01-08	17:20:36	1	1	1	experiment	1	getValueVector			0		1	1	1	1	1	erasure	erasure		1	1	0	1	247	3		152	140	1		0	0	0	2	230	0			0				0.6999999999999999556	0	25	25	1		nan	201						140	155	125	215	245	1	wind	cloud	Planet1A.png	Ship1A.png	blank.png	fog0.png		0
6.6.1	mac	0	2024-01-08	17:20:36	1	1	1	experiment	1	getValueVector			0		1	1	1	1	1	erasure	erasure		1	1	0	1	248	3		152	140	1		0	0	0	2	230	0			0				0.6999999999999999556	0	25	25	1		nan	201						140	155	125	215	245	1	wind	cloud	Planet1A.png	Ship1A.png	blank.png	fog0.png		0
6.6.1	mac	0	2024-01-08	17:20:36	1	1	1	experiment	1	getValueVector			0		1	1	1	1	1	erasure	erasure		1	1	0	1	249	3		152	140	1		0	0	0	2	230	0			0				0.6999999999999999556	0	25	25	1		nan	201						140	155	125	215	245	1	wind	cloud	Planet1A.png	Ship1A.png	blank.png	fog0.png		0
6.6.1	mac	0	2024-01-08	17:20:36	1	1	1	experiment	1	getValueVector			0		1	1	1	1	1	erasure	erasure		1	1	0	1	250	3		152	140	1		0	0	0	2	230	0			0				0.6999999999999999556	0	25	25	1		nan	201						140	155	125	215	245	1	wind	cloud	Planet1A.png	Ship1A.png	blank.png	fog0.png		0
6.6.1	mac	0	2024-01-08	17:20:36	1	1	1	experiment	1	getValueVector			0		1	1	1	1	1	erasure	erasure		1	1	0	1	251	2		152	140	1		0	0	0	2	230	0			0				0.6999999999999999556	0	25	25	1		nan	201						140	155	125	215	245	1	wind	cloud	Planet1A.png	Ship1A.png	blank.png	fog0.png		0
6.6.1	mac	0	2024-01-08	17:20:36	1	1	1	experiment	1	getValueVector			0		1	1	1	1	1	erasure	erasure		1	1	0	1	252	2		152	140	1		0	0	0	2	230	0			0				0.6999999999999999556	0	25	25	1		nan	201						140	155	125	215	245	1	wind	cloud	Planet1A.png	Ship1A.png	blank.png	fog0.png		0
6.6.1	mac	0	2024-01-08	17:20:36	1	1	1	experiment	1	getValueVector			0		1	1	1	1	1	erasure	erasure		1	1	0	1	253	2		152	140	1		0	0	0	2	230	0			0				0.6999999999999999556	0	25	25	1		nan	201						140	155	125	215	245	1	wind	cloud	Planet1A.png	Ship1A.png	blank.png	fog0.png		0
6.6.1	mac	0	2024-01-08	17:20:36	1	1	1	experiment	1	getValueVector			0		1	1	1	1	1	erasure	erasure		1	1	0	1	254	2		152	140	1		0	0	0	2	230	0			0				0.6999999999999999556	0	25	25	1		nan	201						140	155	125	215	245	1	wind	cloud	Planet1A.png	Ship1A.png	blank.png	fog0.png		0
6.6.1	mac	0	2024-01-08	17:20:36	1	1	1	experiment	1	getValueVector			0		1	1	1	1	1	erasure	erasure		1	1	0	1	255	2		152	140	1		0	0	0	2	230	0			0				0.6999999999999999556	0	25	25	1		nan	201						140	155	125	215	245	1	wind	cloud	Planet1A.png	Ship1A.png	blank.png	fog0.png		0
6.6.1	mac	0	2024-01-08	17:20:36	1	1	1	experiment	1	getValueVector			0		1	1	1	1	1	erasure	erasure		1	1	0	1	256	1		152	140	1		0	0	0	2	230	0			0				0.6999999999999999556	0	25	25	1		nan	201						140	155	125	215	245	1	wind	cloud	Planet1A.png	Ship1A.png	blank.png	fog0.png		0
6.6.1	mac	0	2024-01-08	17:20:36	1	1	1	experiment	1	getValueVector			0		1	1	1	1	1	erasure	erasure		1	1	0	1	257	1		152	140	1		0	0	0	2	230	0			0				0.6999999999999999556	0	25	25	1		nan	201						140	155	125	215	245	1	wind	cloud	Planet1A.png	Ship1A.png	blank.png	fog0.png		0
6.6.1	mac	0	2024-01-08	17:20:36	1	1	1	experiment	1	getValueVector			0		1	1	1	1	1	erasure	erasure		1	1	0	1	258	1		152	140	1		0	0	0	2	230	0			0				0.6999999999999999556	0	25	25	1		nan	201						140	155	125	215	245	1	wind	cloud	Planet1A.png	Ship1A.png	blank.png	fog0.png		0
6.6.1	mac	0	2024-01-08	17:20:36	1	1	1	experiment	1	getValueVector			0		1	1	1	1	1	erasure	erasure		1	1	0	1	259	1		152	140	1		0	0	0	2	230	0			0				0.6999999999999999556	0	25	25	1		nan	201						140	155	125	215	245	1	wind	cloud	Planet1A.png	Ship1A.png	blank.png	fog0.png		0
6.6.1	mac	0	2024-01-08	17:20:36	1	1	1	experiment	1	getValueVector			0		1	1	1	1	1	erasure	erasure		1	1	0	1	260	1		152	140	1		0	0	0	2	230	0			0				0.6999999999999999556	0	25	25	1		nan	201						140	155	125	215	245	1	wind	cloud	Planet1A.png	Ship1A.png	blank.png	fog0.png		0
6.6.1	mac	0	2024-01-08	17:20:36	1	1	1	experiment	1	getValueVector			0		1	1	1	1	1	erasure	erasure		1	1	0	1	261	1		152	140	1		0	0	0	2	230	0			0				0.6999999999999999556	0	25	25	1		nan	201						140	155	125	215	245	1	wind	cloud	Planet1A.png	Ship1A.png	blank.png	fog0.png		0
6.6.1	mac	0	2024-01-08	17:20:36	1	1	1	experiment	1	getValueVector			0		1	1	1	1	1	erasure	erasure		1	1	0	1	262	1		152	140	1		0	0	0	2	230	0			0				0.6999999999999999556	0	25	25	1		nan	201						140	155	125	215	245	1	wind	cloud	Planet1A.png	Ship1A.png	blank.png	fog0.png		0
6.6.1	mac	0	2024-01-08	17:20:36	1	1	1	experiment	1	getValueVector			0		1	1	1	1	1	erasure	erasure		1	1	0	1	263	1		152	140	1		0	0	0	2	230	0			0				0.6999999999999999556	0	25	25	1		nan	201						140	155	125	215	245	1	wind	cloud	Planet1A.png	Ship1A.png	blank.png	fog0.png		0
6.6.1	mac	0	2024-01-08	17:20:36	1	1	1	experiment	1	getValueVector			0		1	1	1	1	1	erasure	erasure		1	1	0	1	264	1		152	140	1		0	0	0	2	230	0			0				0.6999999999999999556	0	25	25	1		nan	201						140	155	125	215	245	1	wind	cloud	Planet1A.png	Ship1A.png	blank.png	fog0.png		0
6.6.1	mac	0	2024-01-08	17:20:36	1	1	1	experiment	1	getValueVector			0		1	1	1	1	1	erasure	erasure		1	1	0	1	265	1		152	140	1		0	0	0	2	230	0			0				0.6999999999999999556	0	25	25	1		nan	201						140	155	125	215	245	1	wind	cloud	Planet1A.png	Ship1A.png	blank.png	fog0.png		0
6.6.1	mac	0	2024-01-08	17:20:36	1	1	1	experiment	1	getValueVector			0		1	1	1	1	1	erasure	erasure		1	1	0	1	266	1		152	140	1		0	0	0	2	230	0			0				0.6999999999999999556	0	25	25	1		nan	201						140	155	125	215	245	1	wind	cloud	Planet1A.png	Ship1A.png	blank.png	fog0.png		0
6.6.1	mac	0	2024-01-08	17:20:36	1	1	1	experiment	1	getValueVector			0		1	1	1	1	1	erasure	erasure		1	1	0	1	267	1		152	140	1		0	0	0	2	230	0			0				0.6999999999999999556	0	25	25	1		nan	201						140	155	125	215	245	1	wind	cloud	Planet1A.png	Ship1A.png	blank.png	fog0.png		0
6.6.1	mac	0	2024-01-08	17:20:36	1	1	1	experiment	1	getValueVector			0		1	1	1	1	1	erasure	erasure		1	1	0	1	268	1		152	140	1		0	0	0	2	230	0			0				0.6999999999999999556	0	25	25	1		nan	201						140	155	125	215	245	1	wind	cloud	Planet1A.png	Ship1A.png	blank.png	fog0.png		0
6.6.1	mac	0	2024-01-08	17:20:36	1	1	1	experiment	1	getValueVector			0		1	1	1	1	1	erasure	erasure		1	1	0	1	269	2		152	140	1		0	0	0	2	230	0			0				0.6999999999999999556	0	25	25	1		nan	201						140	155	125	215	245	1	wind	cloud	Planet1A.png	Ship1A.png	blank.png	fog0.png		0
6.6.1	mac	0	2024-01-08	17:20:36	1	1	1	experiment	1	getValueVector			0		1	1	1	1	1	erasure	erasure		1	1	0	1	270	2		152	140	1		0	0	0	2	230	0			0				0.6999999999999999556	0	25	25	1		nan	201						140	155	125	215	245	1	wind	cloud	Planet1A.png	Ship1A.png	blank.png	fog0.png		0
6.6.1	mac	0	2024-01-08	17:20:36	1	1	1	experiment	1	getValueVector			0		1	1	1	1	1	erasure	erasure		1	1	0	1	271	2		152	140	1		0	0	0	2	230	0			0				0.6999999999999999556	0	25	25	1		nan	201						140	155	125	215	245	1	wind	cloud	Planet1A.png	Ship1A.png	blank.png	fog0.png		0
6.6.1	mac	0	2024-01-08	17:20:36	1	1	1	experiment	1	getValueVector			0		1	1	1	1	1	erasure	erasure		1	1	0	1	272	2		152	140	1		0	0	0	2	230	0			0				0.6999999999999999556	0	25	25	1		nan	201						140	155	125	215	245	1	wind	cloud	Planet1A.png	Ship1A.png	blank.png	fog0.png		0
6.6.1	mac	0	2024-01-08	17:20:36	1	1	1	experiment	1	getValueVector			0		1	1	1	1	1	erasure	erasure		1	1	0	1	273	2		152	140	1		0	0	0	2	230	0			0				0.6999999999999999556	0	25	25	1		nan	201						140	155	125	215	245	1	wind	cloud	Planet1A.png	Ship1A.png	blank.png	fog0.png		0
6.6.1	mac	0	2024-01-08	17:20:36	1	1	1	experiment	1	getValueVector			0		1	1	1	1	1	erasure	erasure		1	1	0	1	274	3		152	140	1		0	0	0	2	230	0			0				0.6999999999999999556	0	25	25	1		nan	201						140	155	125	215	245	1	wind	cloud	Planet1A.png	Ship1A.png	blank.png	fog0.png		0
6.6.1	mac	0	2024-01-08	17:20:36	1	1	1	experiment	1	getValueVector			0		1	1	1	1	1	erasure	erasure		1	1	0	1	275	3		152	140	1		0	0	0	2	230	0			0				0.6999999999999999556	0	25	25	1		nan	201						140	155	125	215	245	1	wind	cloud	Planet1A.png	Ship1A.png	blank.png	fog0.png		0
6.6.1	mac	0	2024-01-08	17:20:36	1	1	1	experiment	1	getValueVector			0		1	1	1	1	1	erasure	erasure		1	1	0	1	276	3		152	140	1		0	0	0	2	230	0			0				0.6999999999999999556	0	25	25	1		nan	201						140	155	125	215	245	1	wind	cloud	Planet1A.png	Ship1A.png	blank.png	fog0.png		0
6.6.1	mac	0	2024-01-08	17:20:36	1	1	1	experiment	1	getValueVector			0		1	1	1	1	1	erasure	erasure		1	1	0	1	277	4		152	140	1		0	0	0	2	230	0			0				0.6999999999999999556	0	25	25	1		nan	201						140	155	125	215	245	1	wind	cloud	Planet1A.png	Ship1A.png	blank.png	fog0.png		0
6.6.1	mac	0	2024-01-08	17:20:36	1	1	1	experiment	1	getValueVector			0		1	1	1	1	1	erasure	erasure		1	1	0	1	278	4		152	140	1		0	0	0	2	230	0			0				0.6999999999999999556	0	25	25	1		nan	201						140	155	125	215	245	1	wind	cloud	Planet1A.png	Ship1A.png	blank.png	fog0.png		0
6.6.1	mac	0	2024-01-08	17:20:36	1	1	1	experiment	1	getValueVector			0		1	1	1	1	1	erasure	erasure		1	1	0	1	279	4		152	140	1		0	0	0	2	230	0			0				0.6999999999999999556	0	25	25	1		nan	201						140	155	125	215	245	1	wind	cloud	Planet1A.png	Ship1A.png	blank.png	fog0.png		0
6.6.1	mac	0	2024-01-08	17:20:36	1	1	1	experiment	1	getValueVector			0		1	1	1	1	1	erasure	erasure		1	1	0	1	280	5		152	140	1		0	0	0	2	230	0			0				0.6999999999999999556	0	25	25	1		nan	201						140	155	125	215	245	1	wind	cloud	Planet1A.png	Ship1A.png	blank.png	fog0.png		0
6.6.1	mac	0	2024-01-08	17:20:36	1	1	1	experiment	1	getValueVector			0		1	1	1	1	1	erasure	erasure		1	1	0	1	281	5		152	140	1		0	0	0	2	230	0			0				0.6999999999999999556	0	25	25	1		nan	201						140	155	125	215	245	1	wind	cloud	Planet1A.png	Ship1A.png	blank.png	fog0.png		0
6.6.1	mac	0	2024-01-08	17:20:36	1	1	1	experiment	1	getValueVector			0		1	1	1	1	1	erasure	erasure		1	1	0	1	282	6		152	140	1		0	0	0	2	230	0			0				0.6999999999999999556	0	25	25	1		nan	201						140	155	125	215	245	1	wind	cloud	Planet1A.png	Ship1A.png	blank.png	fog0.png		0
6.6.1	mac	0	2024-01-08	17:20:36	1	1	1	experiment	1	getValueVector			0		1	1	1	1	1	erasure	erasure		1	1	0	1	283	6		152	140	1		0	0	0	2	230	0			0				0.6999999999999999556	0	25	25	1		nan	201						140	155	125	215	245	1	wind	cloud	Planet1A.png	Ship1A.png	blank.png	fog0.png		0
6.6.1	mac	0	2024-01-08	17:20:36	1	1	1	experiment	1	getValueVector			0		1	1	1	1	1	erasure	erasure		1	1	0	1	284	7		152	140	1		0	0	0	2	230	0			0				0.6999999999999999556	0	25	25	1		nan	201						140	155	125	215	245	1	wind	cloud	Planet1A.png	Ship1A.png	blank.png	fog0.png		0
6.6.1	mac	0	2024-01-08	17:20:36	1	1	1	experiment	1	getValueVector			0		1	1	1	1	1	erasure	erasure		1	1	0	1	285	7		152	140	1		0	0	0	2	230	0			0				0.6999999999999999556	0	25	25	1		nan	201						140	155	125	215	245	1	wind	cloud	Planet1A.png	Ship1A.png	blank.png	fog0.png		0
6.6.1	mac	0	2024-01-08	17:20:36	1	1	1	experiment	1	getValueVector			0		1	1	1	1	1	erasure	erasure		1	1	0	1	286	8		152	140	1		0	0	0	2	230	0			0				0.6999999999999999556	0	25	25	1		nan	201						140	155	125	215	245	1	wind	cloud	Planet1A.png	Ship1A.png	blank.png	fog0.png		0
6.6.1	mac	0	2024-01-08	17:20:36	1	1	1	experiment	1	getValueVector			0		1	1	1	1	1	erasure	erasure		1	1	0	1	287	9		152	140	1		0	0	0	2	230	0			0				0.6999999999999999556	0	25	25	1		nan	201						140	155	125	215	245	1	wind	cloud	Planet1A.png	Ship1A.png	blank.png	fog0.png		0
6.6.1	mac	0	2024-01-08	17:20:36	1	1	1	experiment	1	getValueVector			0		1	1	1	1	1	erasure	erasure		1	1	0	1	288	9		152	140	1		0	0	0	2	230	0			0				0.6999999999999999556	0	25	25	1		nan	201						140	155	125	215	245	1	wind	cloud	Planet1A.png	Ship1A.png	blank.png	fog0.png		0
6.6.1	mac	0	2024-01-08	17:20:36	1	1	1	experiment	1	getValueVector			0		1	1	1	1	1	erasure	erasure		1	1	0	1	289	10		152	140	1		0	0	0	2	230	0			0				0.6999999999999999556	0	25	25	1		nan	201						140	155	125	215	245	1	wind	cloud	Planet1A.png	Ship1A.png	blank.png	fog0.png		0
6.6.1	mac	0	2024-01-08	17:20:36	1	1	1	experiment	1	getValueVector			0		1	1	1	1	1	erasure	erasure		1	1	0	1	290	11		152	140	1		0	0	0	2	230	0			0				0.6999999999999999556	0	25	25	1		nan	201						140	155	125	215	245	1	wind	cloud	Planet1A.png	Ship1A.png	blank.png	fog0.png		0
6.6.1	mac	0	2024-01-08	17:20:36	1	1	1	experiment	1	getValueVector			0		1	1	1	1	1	erasure	erasure		1	1	0	1	291	11		152	140	1		0	0	0	2	230	0			0				0.6999999999999999556	0	25	25	1		nan	201						140	155	125	215	245	1	wind	cloud	Planet1A.png	Ship1A.png	blank.png	fog0.png		0
6.6.1	mac	0	2024-01-08	17:20:36	1	1	1	experiment	1	getValueVector			0		1	1	1	1	1	erasure	erasure		1	1	0	1	292	12		152	140	1		0	0	0	2	230	0			0				0.6999999999999999556	0	25	25	1		nan	201						140	155	125	215	245	1	wind	cloud	Planet1A.png	Ship1A.png	blank.png	fog0.png		0
6.6.1	mac	0	2024-01-08	17:20:36	1	1	1	experiment	1	getValueVector			0		1	1	1	1	1	erasure	erasure		1	1	0	1	293	13		152	140	1		0	0	0	2	230	0			0				0.6999999999999999556	0	25	25	1		nan	201						140	155	125	215	245	1	wind	cloud	Planet1A.png	Ship1A.png	blank.png	fog0.png		0
6.6.1	mac	0	2024-01-08	17:20:36	1	1	1	experiment	1	getValueVector			0		1	1	1	1	1	erasure	erasure		1	1	0	1	294	13		152	140	1		0	0	0	2	230	0			0				0.6999999999999999556	0	25	25	1		nan	201						140	155	125	215	245	1	wind	cloud	Planet1A.png	Ship1A.png	blank.png	fog0.png		0
6.6.1	mac	0	2024-01-08	17:20:36	1	1	1	experiment	1	getValueVector			0		1	1	1	1	1	erasure	erasure		1	1	0	1	295	14		152	140	1		0	0	0	2	230	0			0				0.6999999999999999556	0	25	25	1		nan	201						140	155	125	215	245	1	wind	cloud	Planet1A.png	Ship1A.png	blank.png	fog0.png		0
6.6.1	mac	0	2024-01-08	17:20:36	1	1	1	experiment	1	getValueVector			0		1	1	1	1	1	erasure	erasure		1	1	0	1	296	15		152	140	1		0	0	0	2	230	0			0				0.6999999999999999556	0	25	25	1		nan	201						140	155	125	215	245	1	wind	cloud	Planet1A.png	Ship1A.png	blank.png	fog0.png		0
6.6.1	mac	0	2024-01-08	17:20:36	1	1	1	experiment	1	getValueVector			0		1	1	1	1	1	erasure	erasure		1	1	0	1	297	16		152	140	1		0	0	0	2	230	0			0				0.6999999999999999556	0	25	25	1		nan	201						140	155	125	215	245	1	wind	cloud	Planet1A.png	Ship1A.png	blank.png	fog0.png		0
6.6.1	mac	0	2024-01-08	17:20:36	1	1	1	experiment	1	getValueVector			0		1	1	1	1	1	erasure	erasure		1	1	0	1	298	17		152	140	1		0	0	0	2	230	0			0				0.6999999999999999556	0	25	25	1		nan	201						140	155	125	215	245	1	wind	cloud	Planet1A.png	Ship1A.png	blank.png	fog0.png		0
6.6.1	mac	0	2024-01-08	17:20:36	1	1	1	experiment	1	getValueVector			0		1	1	1	1	1	erasure	erasure		1	1	0	1	299	17		152	140	1		0	0	0	2	230	0			0				0.6999999999999999556	0	25	25	1		nan	201						140	155	125	215	245	1	wind	cloud	Planet1A.png	Ship1A.png	blank.png	fog0.png		0
6.6.1	mac	0	2024-01-08	17:20:36	1	1	1	experiment	1	getValueVector			0		1	1	1	1	1	erasure	erasure		1	1	0	1	300	18		152	140	1		0	0	0	2	230	0			0				0.6999999999999999556	0	25	25	1		nan	201						140	155	125	215	245	1	wind	cloud	Planet1A.png	Ship1A.png	blank.png	fog0.png		0
6.6.1	mac	0	2024-01-08	17:20:36	1	1	1	experiment	1	getValueVector			0		1	1	1	1	1	erasure	erasure		1	1	0	1	301	19		152	140	1		0	0	0	2	230	0			0				0.6999999999999999556	0	25	25	1		nan	201						140	155	125	215	245	1	wind	cloud	Planet1A.png	Ship1A.png	blank.png	fog0.png		0
6.6.1	mac	0	2024-01-08	17:20:36	1	1	1	experiment	1	getValueVector			0		1	1	1	1	1	erasure	erasure		1	1	0	1	302	20		152	140	1		0	0	0	2	230	0			0				0.6999999999999999556	0	25	25	1		nan	201						140	155	125	215	245	1	wind	cloud	Planet1A.png	Ship1A.png	blank.png	fog0.png		0
6.6.1	mac	0	2024-01-08	17:20:36	1	1	1	experiment	1	getValueVector			0		1	1	1	1	1	erasure	erasure		1	1	0	1	303	21		152	140	1		0	0	0	2	230	0			0				0.6999999999999999556	0	25	25	1		nan	201						140	155	125	215	245	1	wind	cloud	Planet1A.png	Ship1A.png	blank.png	fog0.png		0
6.6.1	mac	0	2024-01-08	17:20:36	1	1	1	experiment	1	getValueVector			0		1	1	1	1	1	erasure	erasure		1	1	0	1	304	22		152	140	1		0	0	0	2	230	0			0				0.6999999999999999556	0	25	25	1		nan	201						140	155	125	215	245	1	wind	cloud	Planet1A.png	Ship1A.png	blank.png	fog0.png		0
6.6.1	mac	0	2024-01-08	17:20:36	1	1	1	experiment	1	getValueVector			0		1	1	1	1	1	erasure	erasure		1	1	0	1	305	23		152	140	1		0	0	0	2	230	0			0				0.6999999999999999556	0	25	25	1		nan	201						140	155	125	215	245	1	wind	cloud	Planet1A.png	Ship1A.png	blank.png	fog0.png		0
6.6.1	mac	0	2024-01-08	17:20:36	1	1	1	experiment	1	getValueVector			0		1	1	1	1	1	erasure	erasure		1	1	0	1	306	24		152	140	1		0	0	0	2	230	0			0				0.6999999999999999556	0	25	25	1		nan	201						140	155	125	215	245	1	wind	cloud	Planet1A.png	Ship1A.png	blank.png	fog0.png		0
6.6.1	mac	0	2024-01-08	17:20:36	1	1	1	experiment	1	getValueVector			0		1	1	1	1	1	erasure	erasure		1	1	0	1	307	25		152	140	1		0	0	0	2	230	0			0				0.6999999999999999556	0	25	25	1		nan	201						140	155	125	215	245	1	wind	cloud	Planet1A.png	Ship1A.png	blank.png	fog0.png		0
6.6.1	mac	0	2024-01-08	17:20:36	1	1	1	experiment	1	getValueVector			0		1	1	1	1	1	erasure	erasure		1	1	0	1	308	26		152	140	1		0	0	0	2	230	0			0				0.6999999999999999556	0	25	25	1		nan	201						140	155	125	215	245	1	wind	cloud	Planet1A.png	Ship1A.png	blank.png	fog0.png		0
6.6.1	mac	0	2024-01-08	17:20:36	1	1	1	experiment	1	getValueVector			0		1	1	1	1	1	erasure	erasure		1	1	0	1	309	27		152	140	1		0	0	0	2	230	0			0				0.6999999999999999556	0	25	25	1		nan	201						140	155	125	215	245	1	wind	cloud	Planet1A.png	Ship1A.png	blank.png	fog0.png		0
6.6.1	mac	0	2024-01-08	17:20:36	1	1	1	experiment	1	getValueVector			0		1	1	1	1	1	erasure	erasure		1	1	0	1	310	28		152	140	1		0	0	0	2	230	0			0				0.6999999999999999556	0	25	25	1		nan	201						140	155	125	215	245	1	wind	cloud	Planet1A.png	Ship1A.png	blank.png	fog0.png		0
6.6.1	mac	0	2024-01-08	17:20:36	1	1	1	experiment	1	getValueVector			0		1	1	1	1	1	erasure	erasure		1	1	0	1	311	29		152	140	1		0	0	0	2	230	0			0				0.6999999999999999556	0	25	25	1		nan	201						140	155	125	215	245	1	wind	cloud	Planet1A.png	Ship1A.png	blank.png	fog0.png		0
6.6.1	mac	0	2024-01-08	17:20:36	1	1	1	experiment	1	getValueVector			0		1	1	1	1	1	erasure	erasure		1	1	0	1	312	30		152	140	1		0	0	0	2	230	0			0				0.6999999999999999556	0	25	25	1		nan	201						140	155	125	215	245	1	wind	cloud	Planet1A.png	Ship1A.png	blank.png	fog0.png		0
6.6.1	mac	0	2024-01-08	17:20:36	1	1	1	experiment	1	getValueVector			0		1	1	1	1	1	erasure	erasure		1	1	0	1	313	31		152	140	1		0	0	0	2	230	0			0				0.6999999999999999556	0	25	25	1		nan	201						140	155	125	215	245	1	wind	cloud	Planet1A.png	Ship1A.png	blank.png	fog0.png		0
6.6.1	mac	0	2024-01-08	17:20:36	1	1	1	experiment	1	getValueVector			0		1	1	1	1	1	erasure	erasure		1	1	0	1	314	32		152	140	1		0	0	0	2	230	0			0				0.6999999999999999556	0	25	25	1		nan	201						140	155	125	215	245	1	wind	cloud	Planet1A.png	Ship1A.png	blank.png	fog0.png		0
6.6.1	mac	0	2024-01-08	17:20:36	1	1	1	experiment	1	getValueVector			0		1	1	1	1	1	erasure	erasure		1	1	0	1	315	33		152	140	1		0	0	0	2	230	0			0				0.6999999999999999556	0	25	25	1		nan	201						140	155	125	215	245	1	wind	cloud	Planet1A.png	Ship1A.png	blank.png	fog0.png		0
6.6.1	mac	0	2024-01-08	17:20:36	1	1	1	experiment	1	getValueVector			0		1	1	1	1	1	erasure	erasure		1	1	0	1	316	34		152	140	1		0	0	0	2	230	0			0				0.6999999999999999556	0	25	25	1		nan	201						140	155	125	215	245	1	wind	cloud	Planet1A.png	Ship1A.png	blank.png	fog0.png		0
6.6.1	mac	0	2024-01-08	17:20:36	1	1	1	experiment	1	getValueVector			0		1	1	1	1	1	erasure	erasure		1	1	0	1	317	35		152	140	1		0	0	0	2	230	0			0				0.6999999999999999556	0	25	25	1		nan	201						140	155	125	215	245	1	wind	cloud	Planet1A.png	Ship1A.png	blank.png	fog0.png		0
6.6.1	mac	0	2024-01-08	17:20:36	1	1	1	experiment	1	getValueVector			0		1	1	1	1	1	erasure	erasure		1	1	0	1	318	36		152	140	1		0	0	0	2	230	0			0				0.6999999999999999556	0	25	25	1		nan	201						140	155	125	215	245	1	wind	cloud	Planet1A.png	Ship1A.png	blank.png	fog0.png		0
6.6.1	mac	0	2024-01-08	17:20:36	1	1	1	experiment	1	getValueVector			0		1	1	1	1	1	erasure	erasure		1	1	0	1	319	37		152	140	1		0	0	0	2	230	0			0				0.6999999999999999556	0	25	25	1		nan	201						140	155	125	215	245	1	wind	cloud	Planet1A.png	Ship1A.png	blank.png	fog0.png		0
6.6.1	mac	0	2024-01-08	17:20:36	1	1	1	experiment	1	getValueVector			0		1	1	1	1	1	erasure	erasure		1	1	0	1	320	38		152	140	1		0	0	0	2	230	0			0				0.6999999999999999556	0	25	25	1		nan	201						140	155	125	215	245	1	wind	cloud	Planet1A.png	Ship1A.png	blank.png	fog0.png		0
6.6.1	mac	0	2024-01-08	17:20:36	1	1	1	experiment	1	getValueVector			0		1	1	1	1	1	erasure	erasure		1	1	0	1	321	39		152	140	1		0	0	0	2	230	0			0				0.6999999999999999556	0	25	25	1		nan	201						140	155	125	215	245	1	wind	cloud	Planet1A.png	Ship1A.png	blank.png	fog0.png		0
6.6.1	mac	0	2024-01-08	17:20:36	1	1	1	experiment	1	getValueVector			0		1	1	1	1	1	erasure	erasure		1	1	0	1	322	41		152	140	1		0	0	0	2	230	0			0				0.6999999999999999556	0	25	25	1		nan	201						140	155	125	215	245	1	wind	cloud	Planet1A.png	Ship1A.png	blank.png	fog0.png		0
6.6.1	mac	0	2024-01-08	17:20:36	1	1	1	experiment	1	getValueVector			0		1	1	1	1	1	erasure	erasure		1	1	0	1	323	42		152	140	1		0	0	0	2	230	0			0				0.6999999999999999556	0	25	25	1		nan	201						140	155	125	215	245	1	wind	cloud	Planet1A.png	Ship1A.png	blank.png	fog0.png		0
6.6.1	mac	0	2024-01-08	17:20:36	1	1	1	experiment	1	getValueVector			0		1	1	1	1	1	erasure	erasure		1	1	0	1	324	43		152	140	1		0	0	0	2	230	0			0				0.6999999999999999556	0	25	25	1		nan	201						140	155	125	215	245	1	wind	cloud	Planet1A.png	Ship1A.png	blank.png	fog0.png		0
6.6.1	mac	0	2024-01-08	17:20:36	1	1	1	experiment	1	getValueVector			0		1	1	1	1	1	erasure	erasure		1	1	0	1	325	44		152	140	1		0	0	0	2	230	0			0				0.6999999999999999556	0	25	25	1		nan	201						140	155	125	215	245	1	wind	cloud	Planet1A.png	Ship1A.png	blank.png	fog0.png		0
6.6.1	mac	0	2024-01-08	17:20:36	1	1	1	experiment	1	getValueVector			0		1	1	1	1	1	erasure	erasure		1	1	0	1	326	45		152	140	1		0	0	0	2	230	0			0				0.6999999999999999556	0	25	25	1		nan	201						140	155	125	215	245	1	wind	cloud	Planet1A.png	Ship1A.png	blank.png	fog0.png		0
6.6.1	mac	0	2024-01-08	17:20:36	1	1	1	experiment	1	getValueVector			0		1	1	1	1	1	erasure	erasure		1	1	0	1	327	47		152	140	1		0	0	0	2	230	0			0				0.6999999999999999556	0	25	25	1		nan	201						140	155	125	215	245	1	wind	cloud	Planet1A.png	Ship1A.png	blank.png	fog0.png		0
6.6.1	mac	0	2024-01-08	17:20:36	1	1	1	experiment	1	getValueVector			0		1	1	1	1	1	erasure	erasure		1	1	0	1	328	48		152	140	1		0	0	0	2	230	0			0				0.6999999999999999556	0	25	25	1		nan	201						140	155	125	215	245	1	wind	cloud	Planet1A.png	Ship1A.png	blank.png	fog0.png		0
6.6.1	mac	0	2024-01-08	17:20:36	1	1	1	experiment	1	getValueVector			0		1	1	1	1	1	erasure	erasure		1	1	0	1	329	49		152	140	1		0	0	0	2	230	0			0				0.6999999999999999556	0	25	25	1		nan	201						140	155	125	215	245	1	wind	cloud	Planet1A.png	Ship1A.png	blank.png	fog0.png		0
6.6.1	mac	0	2024-01-08	17:20:36	1	1	1	experiment	1	getValueVector			0		1	1	1	1	1	erasure	erasure		1	1	0	1	330	51		152	140	1		0	0	0	2	230	0			0				0.6999999999999999556	0	25	25	1		nan	201						140	155	125	215	245	1	wind	cloud	Planet1A.png	Ship1A.png	blank.png	fog0.png		0
6.6.1	mac	0	2024-01-08	17:20:36	1	1	1	experiment	1	getValueVector			0		1	1	1	1	1	erasure	erasure		1	1	0	1	331	52		152	140	1		0	0	0	2	230	0			0				0.6999999999999999556	0	25	25	1		nan	201						140	155	125	215	245	1	wind	cloud	Planet1A.png	Ship1A.png	blank.png	fog0.png		0
6.6.1	mac	0	2024-01-08	17:20:36	1	1	1	experiment	1	getValueVector			0		1	1	1	1	1	erasure	erasure		1	1	0	1	332	54		152	140	1		0	0	0	2	230	0			0				0.6999999999999999556	0	25	25	1		nan	201						140	155	125	215	245	1	wind	cloud	Planet1A.png	Ship1A.png	blank.png	fog0.png		0
6.6.1	mac	0	2024-01-08	17:20:36	1	1	1	experiment	1	getValueVector			0		1	1	1	1	1	erasure	erasure		1	1	0	1	333	55		152	140	1		0	0	0	2	230	0			0				0.6999999999999999556	0	25	25	1		nan	201						140	155	125	215	245	1	wind	cloud	Planet1A.png	Ship1A.png	blank.png	fog0.png		0
6.6.1	mac	0	2024-01-08	17:20:36	1	1	1	experiment	1	getValueVector			0		1	1	1	1	1	erasure	erasure		1	1	0	1	334	56		152	140	1		0	0	0	2	230	0			0				0.6999999999999999556	0	25	25	1		nan	201						140	155	125	215	245	1	wind	cloud	Planet1A.png	Ship1A.png	blank.png	fog0.png		0
6.6.1	mac	0	2024-01-08	17:20:36	1	1	1	experiment	1	getValueVector			0		1	1	1	1	1	erasure	erasure		1	1	0	1	335	58		152	140	1		0	0	0	2	230	0			0				0.6999999999999999556	0	25	25	1		nan	201						140	155	125	215	245	1	wind	cloud	Planet1A.png	Ship1A.png	blank.png	fog0.png		0
6.6.1	mac	0	2024-01-08	17:20:36	1	1	1	experiment	1	getValueVector			0		1	1	1	1	1	erasure	erasure		1	1	0	1	336	59		152	140	1		0	0	0	2	230	0			0				0.6999999999999999556	0	25	25	1		nan	201						140	155	125	215	245	1	wind	cloud	Planet1A.png	Ship1A.png	blank.png	fog0.png		0
6.6.1	mac	0	2024-01-08	17:20:36	1	1	1	experiment	1	getValueVector			0		1	1	1	1	1	erasure	erasure		1	1	0	1	337	61		152	140	1		0	0	0	2	230	0			0				0.6999999999999999556	0	25	25	1		nan	201						140	155	125	215	245	1	wind	cloud	Planet1A.png	Ship1A.png	blank.png	fog0.png		0
6.6.1	mac	0	2024-01-08	17:20:36	1	1	1	experiment	1	getValueVector			0		1	1	1	1	1	erasure	erasure		1	1	0	1	338	63		152	140	1		0	0	0	2	230	0			0				0.6999999999999999556	0	25	25	1		nan	201						140	155	125	215	245	1	wind	cloud	Planet1A.png	Ship1A.png	blank.png	fog0.png		0
6.6.1	mac	0	2024-01-08	17:20:36	1	1	1	experiment	1	getValueVector			0		1	1	1	1	1	erasure	erasure		1	1	0	1	339	64		152	140	1		0	0	0	2	230	0			0				0.6999999999999999556	0	25	25	1		nan	201						140	155	125	215	245	1	wind	cloud	Planet1A.png	Ship1A.png	blank.png	fog0.png		0
6.6.1	mac	0	2024-01-08	17:20:36	1	1	1	experiment	1	getValueVector			0		1	1	1	1	1	erasure	erasure		1	1	0	1	340	66		152	140	1		0	0	0	2	230	0			0				0.6999999999999999556	0	25	25	1		nan	201						140	155	125	215	245	1	wind	cloud	Planet1A.png	Ship1A.png	blank.png	fog0.png		0
6.6.1	mac	0	2024-01-08	17:20:36	1	1	1	experiment	1	getValueVector			0		1	1	1	1	1	erasure	erasure		1	1	0	1	341	68		152	140	1		0	0	0	2	230	0			0				0.6999999999999999556	0	25	25	1		nan	201						140	155	125	215	245	1	wind	cloud	Planet1A.png	Ship1A.png	blank.png	fog0.png		0
6.6.1	mac	0	2024-01-08	17:20:36	1	1	1	experiment	1	getValueVector			0		1	1	1	1	1	erasure	erasure		1	1	0	1	342	69		152	140	1		0	0	0	2	230	0			0				0.6999999999999999556	0	25	25	1		nan	201						140	155	125	215	245	1	wind	cloud	Planet1A.png	Ship1A.png	blank.png	fog0.png		0
6.6.1	mac	0	2024-01-08	17:20:36	1	1	1	experiment	1	getValueVector			0		1	1	1	1	1	erasure	erasure		1	1	0	1	343	71		152	140	1		0	0	0	2	230	0			0				0.6999999999999999556	0	25	25	1		nan	201						140	155	125	215	245	1	wind	cloud	Planet1A.png	Ship1A.png	blank.png	fog0.png		0
6.6.1	mac	0	2024-01-08	17:20:36	1	1	1	experiment	1	getValueVector			0		1	1	1	1	1	erasure	erasure		1	1	0	1	344	73		152	140	1		0	0	0	2	230	0			0				0.6999999999999999556	0	25	25	1		nan	201						140	155	125	215	245	1	wind	cloud	Planet1A.png	Ship1A.png	blank.png	fog0.png		0
6.6.1	mac	0	2024-01-08	17:20:36	1	1	1	experiment	1	getValueVector			0		1	1	1	1	1	erasure	erasure		1	1	0	1	345	75		152	140	1		0	0	0	2	230	0			0				0.6999999999999999556	0	25	25	1		nan	201						140	155	125	215	245	1	wind	cloud	Planet1A.png	Ship1A.png	blank.png	fog0.png		0
6.6.1	mac	0	2024-01-08	17:20:36	1	1	1	experiment	1	getValueVector			0		1	1	1	1	1	erasure	erasure		1	1	0	1	346	77		152	140	1		0	0	0	2	230	0			0				0.6999999999999999556	0	25	25	1		nan	201						140	155	125	215	245	1	wind	cloud	Planet1A.png	Ship1A.png	blank.png	fog0.png		0
6.6.1	mac	0	2024-01-08	17:20:36	1	1	1	experiment	1	getValueVector			0		1	1	1	1	1	erasure	erasure		1	1	0	1	347	79		152	140	1		0	0	0	2	230	0			0				0.6999999999999999556	0	25	25	1		nan	201						140	155	125	215	245	1	wind	cloud	Planet1A.png	Ship1A.png	blank.png	fog0.png		0
6.6.1	mac	0	2024-01-08	17:20:36	1	1	1	experiment	1	getValueVector			0		1	1	1	1	1	erasure	erasure		1	1	0	1	348	81		152	140	1		0	0	0	2	230	0			0				0.6999999999999999556	0	25	25	1		nan	201						140	155	125	215	245	1	wind	cloud	Planet1A.png	Ship1A.png	blank.png	fog0.png		0
6.6.1	mac	0	2024-01-08	17:20:36	1	1	1	experiment	1	getValueVector			0		1	1	1	1	1	erasure	erasure		1	1	0	1	349	83		152	140	1		0	0	0	2	230	0			0				0.6999999999999999556	0	25	25	1		nan	201						140	155	125	215	245	1	wind	cloud	Planet1A.png	Ship1A.png	blank.png	fog0.png		0
6.6.1	mac	0	2024-01-08	17:20:36	1	1	1	experiment	1	getValueVector			0		1	1	1	1	1	erasure	erasure		1	1	0	1	350	85		152	140	1		0	0	0	2	230	0			0				0.6999999999999999556	0	25	25	1		nan	201						140	155	125	215	245	1	wind	cloud	Planet1A.png	Ship1A.png	blank.png	fog0.png		0
6.6.1	mac	0	2024-01-08	17:20:36	1	1	1	experiment	1	getValueVector			0		1	1	1	1	1	erasure	erasure		1	1	0	1	351	87		152	140	1		0	0	0	2	230	0			0				0.6999999999999999556	0	25	25	1		nan	201						140	155	125	215	245	1	wind	cloud	Planet1A.png	Ship1A.png	blank.png	fog0.png		0
6.6.1	mac	0	2024-01-08	17:20:36	1	1	1	experiment	1	getValueVector			0		1	1	1	1	1	erasure	erasure		1	1	0	1	352	89		152	140	1		0	0	0	2	230	0			0				0.6999999999999999556	0	25	25	1		nan	201						140	155	125	215	245	1	wind	cloud	Planet1A.png	Ship1A.png	blank.png	fog0.png		0
6.6.1	mac	0	2024-01-08	17:20:36	1	1	1	experiment	1	getValueVector			0		1	1	1	1	1	erasure	erasure		1	1	0	1	353	91		152	140	1		0	0	0	2	230	0			0				0.6999999999999999556	0	25	25	1		nan	201						140	155	125	215	245	1	wind	cloud	Planet1A.png	Ship1A.png	blank.png	fog0.png		0
6.6.1	mac	0	2024-01-08	17:20:36	1	1	1	experiment	1	getValueVector			0		1	1	1	1	1	erasure	erasure		1	1	0	1	354	94		152	140	1		0	0	0	2	230	0			0				0.6999999999999999556	0	25	25	1		nan	201						140	155	125	215	245	1	wind	cloud	Planet1A.png	Ship1A.png	blank.png	fog0.png		0
6.6.1	mac	0	2024-01-08	17:20:36	1	1	1	experiment	1	getValueVector			0		1	1	1	1	1	erasure	erasure		1	1	0	1	355	96		152	140	1		0	0	0	2	230	0			0				0.6999999999999999556	0	25	25	1		nan	201						140	155	125	215	245	1	wind	cloud	Planet1A.png	Ship1A.png	blank.png	fog0.png		0
6.6.1	mac	0	2024-01-08	17:20:36	1	1	1	experiment	1	getValueVector			0		1	1	1	1	1	erasure	erasure		1	1	0	1	356	98		152	140	1		0	0	0	2	230	0			0				0.6999999999999999556	0	25	25	1		nan	201						140	155	125	215	245	1	wind	cloud	Planet1A.png	Ship1A.png	blank.png	fog0.png		0
6.6.1	mac	0	2024-01-08	17:20:36	1	1	1	experiment	1	getValueVector			0		1	1	1	1	1	erasure	erasure		1	1	0	1	357	101		152	140	1		0	0	0	2	230	0			0				0.6999999999999999556	0	25	25	1		nan	201						140	155	125	215	245	1	wind	cloud	Planet1A.png	Ship1A.png	blank.png	fog0.png		0
6.6.1	mac	0	2024-01-08	17:20:36	1	1	1	experiment	1	getValueVector			0		1	1	1	1	1	erasure	erasure		1	1	0	1	358	103		152	140	1		0	0	0	2	230	0			0				0.6999999999999999556	0	25	25	1		nan	201						140	155	125	215	245	1	wind	cloud	Planet1A.png	Ship1A.png	blank.png	fog0.png		0
6.6.1	mac	0	2024-01-08	17:20:36	1	1	1	experiment	1	getValueVector			0		1	1	1	1	1	erasure	erasure		1	1	0	1	359	106		152	140	1		0	0	0	2	230	0			0				0.6999999999999999556	0	25	25	1		nan	201						140	155	125	215	245	1	wind	cloud	Planet1A.png	Ship1A.png	blank.png	fog0.png		0
6.6.1	mac	0	2024-01-08	17:20:36	1	1	1	experiment	1	getValueVector			0		1	1	1	1	1	erasure	erasure		1	1	0	1	360	106		152	140	1		0	0	0	2	230	0			0				0.6999999999999999556	0	25	25	1		nan	201						140	155	125	215	245	1	wind	cloud	Planet1A.png	Ship1A.png	blank.png	fog0.png		0
6.6.1	mac	0	2024-01-08	17:20:36	1	1	1	experiment	1	clock			512		1	1	1	1	1	erasure	erasure		1	1	0	1	360	106		152	140	1		0	0	0	2	230	96			0				0.6999999999999999556	0	25	25	1		nan	201						140	155	125	215	245	1	wind	cloud	Planet1A.png	Ship1A.png	blank.png	fog0.png		0
6.6.1	mac	0	2024-01-08	17:20:36	1	1	1	experiment	1	feedback			700		1	2	1	1	1	erasure	erasure		0	1	0	1	360	106		152	140	1		0	0	0	2	230	96	112.4639999999999986358	1562	165	10	10	0.8070866532640267321	0.6999999999999999556	0	25	25	1		nan	201					22	140	155	125	215	245	1	wind	cloud	Planet1A.png	Ship1A.png	Mushroom1A.png	fog0.png	0.0029999999999999996	0.0029999999999999996
6.6.1	mac	0	2024-01-08	17:20:36	1	1	1	experiment	1	getValueVector			0		1	2	2	2	2	erasure	erasure	erasure	0	2	0	1	1	106		152	140	1		0	0	0	2	230	96			165				0.6999999999999999556	0	25	25	1		64.2496296296296378614	201	64.3833333333333399651	201	1		22	140	155	125	215	245	1	wind	cloud	Planet1A.png	Ship1A.png	Mushroom1A.png	fog0.png	0.0029999999999999996	0.0029999999999999996
