build	computer.platform	computer.touch	date	time	subject	group	sessionid	blockcode	blocknum	trialcode	list.ITI.currentvalue	list.preClockFreeze.currentvalue	latency	list.ISI.currentvalue	block	trialCount	trial	run_trial	block_trial	block_type	trial_type	last_block_type	generate_new_erasure	trial_since_erasure_gen	deg_index_att	deg_index_era	att_index	era_index	seed	list.era_loc.currentvalue	has_erasure	list.att_loc.currentvalue	n_clicks	timeout_block	timeouts_remain	stim_center_deg	startPos	pos_shifted	rt_shifted	mag	inc_rg	inc	rng	freq	choose_stim	erasure_value	erasure_RT	right_index	left_index	stim_left_deg	stim_right_deg	trial	erasure_blocks	attentional_control	local_uncertainty	picture.planet.item.1	picture.animatedCircle.item.1	picture.feedback2.items.1	Earnings	totalEarnings
6.6.1	mac	0	2023-12-01	11:56:42	1	2	1	experiment	1	clock	170	670	1499		1	1	1	1	1	attention	attention		1				1	0	2455		0	232	0	0	2	322	6			0				0.6999999999999999556	0					307	337	1	0	wind	cloud	Planet1A.png	Ship1A.png	blank.png		0
6.6.1	mac	0	2023-12-01	11:56:42	1	2	1	experiment	1	feedback	170	670	700	360	1	2	1	1	1	attention	attention		0				1	0	2455		0	232	0	0	2	322	6	219.5279999999999915872	3049	145	145	145	0.0889114600347614553	0.6999999999999999556	0					307	337	1	0	wind	cloud	Planet1A.png	Ship1A.png	Mushroom1A.png	0.043499999999999997	0.043499999999999997
6.6.1	mac	0	2023-12-01	11:56:42	1	2	1	experiment	1	clock	120	650	313	360	1	2	2	2	2	attention	attention	attention	0				1	0	2455		0	232	0	0	2	322	3			145				0.6999999999999999556	0					307	337	2	0	wind	cloud	Planet1A.png	Ship1A.png	Mushroom1A.png	0.043499999999999997	0.043499999999999997
6.6.1	mac	0	2023-12-01	11:56:42	1	2	1	experiment	1	feedback	120	650	700	480	1	3	2	2	2	attention	attention	attention	0				1	0	2455		0	232	0	0	2	322	3	123.3359999999999985221	1713	180	150	180	0.2455861855404419258	0.6999999999999999556	0					307	337	2	0	wind	cloud	Planet1A.png	Ship1A.png	Mushroom1A.png	0.0449999999999999983	0.0884999999999999953
6.6.1	mac	0	2023-12-01	11:56:42	1	2	1	experiment	1	clock	250	560	277	480	1	3	3	3	3	attention	attention	attention	0				1	0	2455		0	232	0	0	2	322	25			180				0.6999999999999999556	0					307	337	3	0	wind	cloud	Planet1A.png	Ship1A.png	Mushroom1A.png	0.0449999999999999983	0.0884999999999999953
6.6.1	mac	0	2023-12-01	11:56:42	1	2	1	experiment	1	feedback	250	560	700	280	1	4	3	3	3	attention	attention	attention	0				1	0	2455		0	232	0	0	2	322	25	199.9439999999999884039	2777	177	150	177	0.3087903233963973371	0.6999999999999999556	0					307	337	3	0	wind	cloud	Planet1A.png	Ship1A.png	Mushroom1A.png	0.0449999999999999983	0.1335000000000000075
6.6.1	mac	0	2023-12-01	11:56:42	1	2	1	experiment	1	clock	130	640	267	280	1	4	4	4	4	attention	attention	attention	0				1	0	2455		0	232	0	0	2	322	7			177				0.6999999999999999556	0					307	337	4	0	wind	cloud	Planet1A.png	Ship1A.png	Mushroom1A.png	0.0449999999999999983	0.1335000000000000075
6.6.1	mac	0	2023-12-01	11:56:42	1	2	1	experiment	1	feedback	130	640	700	240	1	5	4	4	4	attention	attention	attention	0				1	0	2455		0	232	0	0	2	322	7	134.4240000000000065938	1867	190	10	10	0.8751815918076740752	0.6999999999999999556	0					307	337	4	0	wind	cloud	Planet1A.png	Ship1A.png	Mushroom1A.png	0.0029999999999999996	0.1365000000000000102
6.6.1	mac	0	2023-12-01	11:56:42	1	2	1	experiment	1	clock	480	540	273	240	1	5	5	5	5	attention	attention	attention	0				1	0	2455		0	232	0	0	2	322	97			190				0.6999999999999999556	0					307	337	5	0	wind	cloud	Planet1A.png	Ship1A.png	Mushroom1A.png	0.0029999999999999996	0.1365000000000000102
6.6.1	mac	0	2023-12-01	11:56:42	1	2	1	experiment	1	feedback	480	540	700	420	1	6	5	5	5	attention	attention	attention	0				1	0	2455		0	232	0	0	2	322	97	98.855999999999994543	1373	148	10	10	0.8456759017067206896	0.6999999999999999556	0					307	337	5	0	wind	cloud	Planet1A.png	Ship1A.png	Mushroom1A.png	0.0029999999999999996	0.1395000000000000129
6.6.1	mac	0	2023-12-01	11:56:42	1	2	1	experiment	1	clock	400	550	300	420	1	6	6	6	6	attention	attention	attention	0				1	0	2455		0	232	0	0	2	322	86			148				0.6999999999999999556	0					307	337	6	0	wind	cloud	Planet1A.png	Ship1A.png	Mushroom1A.png	0.0029999999999999996	0.1395000000000000129
6.6.1	mac	0	2023-12-01	11:56:42	1	2	1	experiment	1	feedback	400	550	700	300	1	7	6	6	6	attention	attention	attention	0				1	0	2455		0	232	0	0	2	322	86	61.2000000000000028422	850	85	85	85	0.2631233304885968738	0.6999999999999999556	0					307	337	6	0	wind	cloud	Planet1A.png	Ship1A.png	Mushroom1A.png	0.0254999999999999984	0.1650000000000000078
6.6.1	mac	0	2023-12-01	11:56:42	1	2	1	experiment	1	clock	230	500	346	300	1	7	7	7	7	attention	attention	attention	0				1	0	2455		0	232	0	0	2	322	62			85				0.6999999999999999556	0					307	337	7	0	wind	cloud	Planet1A.png	Ship1A.png	Mushroom1A.png	0.0254999999999999984	0.1650000000000000078
6.6.1	mac	0	2023-12-01	11:56:42	1	2	1	experiment	1	feedback	230	500	700	350	1	8	7	7	7	attention	attention	attention	0				1	0	2455		0	232	0	0	2	322	62	338.1120000000000231921	4696	1	10	1	0.3338726694541686579	0.6999999999999999556	0					307	337	7	0	wind	cloud	Planet1A.png	Ship1A.png	Mushroom1A.png	0.0029999999999999996	0.1680000000000000104
6.6.1	mac	0	2023-12-01	11:56:42	1	2	1	experiment	1	clock	380	580	286	350	1	8	8	8	8	attention	attention	attention	0				1	0	2455		0	232	0	0	2	322	87			1				0.6999999999999999556	0					307	337	8	0	wind	cloud	Planet1A.png	Ship1A.png	Mushroom1A.png	0.0029999999999999996	0.1680000000000000104
6.6.1	mac	0	2023-12-01	11:56:42	1	2	1	experiment	1	feedback	380	580	700	200	1	9	8	8	8	attention	attention	attention	0				1	0	2455		0	232	0	0	2	322	87	63.7920000000000015916	886	66	10	10	0.8474235604161917124	0.6999999999999999556	0					307	337	8	0	wind	cloud	Planet1A.png	Ship1A.png	Mushroom1A.png	0.0029999999999999996	0.1710000000000000131
6.6.1	mac	0	2023-12-01	11:56:42	1	2	1	experiment	1	clock	240	690	263	200	1	9	9	9	9	attention	attention	attention	0				1	0	2455		0	232	0	0	2	322	35			66				0.6999999999999999556	0					307	337	9	0	wind	cloud	Planet1A.png	Ship1A.png	Mushroom1A.png	0.0029999999999999996	0.1710000000000000131
6.6.1	mac	0	2023-12-01	11:56:42	1	2	1	experiment	1	feedback	240	690	700	560	1	10	9	9	9	attention	attention	attention	0				1	0	2455		0	232	0	0	2	322	35	234.9360000000000070486	3263	77	77	77	0.5801545995241390585	0.6999999999999999556	0					307	337	9	0	wind	cloud	Planet1A.png	Ship1A.png	Mushroom1A.png	0.023099999999999999	0.1941000000000000225
6.6.1	mac	0	2023-12-01	11:56:42	1	2	1	experiment	1	clock	260	680	267	560	1	10	10	10	10	attention	attention	attention	0				1	0	2455		0	232	0	0	2	322	35			77				0.6999999999999999556	0					307	337	10	0	wind	cloud	Planet1A.png	Ship1A.png	Mushroom1A.png	0.023099999999999999	0.1941000000000000225
6.6.1	mac	0	2023-12-01	11:56:42	1	2	1	experiment	1	feedback	260	680	700	340	1	11	10	10	10	attention	attention	attention	0				1	0	2455		0	232	0	0	2	322	35	235.2239999999999895408	3267	62	62	62	0.611261972135692333	0.6999999999999999556	0					307	337	10	0	wind	cloud	Planet1A.png	Ship1A.png	Mushroom1A.png	0.0185999999999999985	0.2127000000000000279
6.6.1	mac	0	2023-12-01	11:56:42	1	2	1	experiment	1	clock	100	530	4443	340	1	11	11	11	1	erasure	erasure	attention	1	1			1	1	2455	102	1	232	0	0	2	192	39			62				0.6999999999999999556	0	45	102	117	87	177	207	11	1	wind	cloud	Planet1A.png	Ship1A.png	Mushroom1A.png	0.0185999999999999985	0.2127000000000000279
6.6.1	mac	0	2023-12-01	11:56:42	1	2	1	experiment	1	feedback	100	530	700	210	1	12	11	11	1	erasure	erasure	attention	0	1			1	1	2455	102	1	232	1	0	2	192	39	190.2959999999999922693	2643	68	68	68	0.6061855888939894355	0.6999999999999999556	1	45	102	117	87	177	207	11	1	wind	cloud	Planet1A.png	Ship1A.png	Mushroom1A.png	0.020399999999999998	0.2331000000000000294
6.6.1	mac	0	2023-12-01	11:56:42	1	2	1	experiment	1	clock	360	590	1568	210	1	12	12	12	2	erasure	erasure	erasure	0	2			1	1	2455	102	1	232	1	0	2	192	96			68				0.6999999999999999556	1	45	102	117	87	177	207	12	1	wind	cloud	Planet1A.png	Ship1A.png	Mushroom1A.png	0.020399999999999998	0.2331000000000000294
6.6.1	mac	0	2023-12-01	11:56:42	1	2	1	experiment	1	feedback	360	590	700	520	1	13	12	12	2	erasure	erasure	erasure	0	2			1	1	2455	102	1	232	2	0	2	192	96	188.4960000000000093223	2618	44	44	44	0.6630236633734366558	0.6999999999999999556	1	45	102	117	87	177	207	12	1	wind	cloud	Planet1A.png	Ship1A.png	Mushroom1A.png	0.0131999999999999982	0.2463000000000000189
6.6.1	mac	0	2023-12-01	11:56:42	1	2	1	experiment	1	clock	300	700	159	520	1	13	13	13	3	erasure	no erasure	erasure	0	3			1	1	2455	102	0	232		1	1	192	13			44				0.6999999999999999556		13.3943661971830980661	102	117	87	177	207	13	1	wind	cloud	Planet1A.png	Ship1A.png	Mushroom1A.png	0.0131999999999999982	0.2463000000000000189
6.6.1	mac	0	2023-12-01	11:56:42	1	2	1	experiment	1	feedback	300	700	700	410	1	14	13	13	3	erasure	no erasure	erasure	0	3			1	1	2455	102	0	232		1	1	192	13	148.2479999999999904503	2059	4	10	10	0.8622096755686704528	0.6999999999999999556		13.3943661971830980661	102	117	87	177	207	13	1	wind	cloud	Planet1A.png	Ship1A.png	Mushroom1A.png	0.0029999999999999996	0.2493000000000000216
6.6.1	mac	0	2023-12-01	11:56:42	1	2	1	experiment	1	clock	490	510	271	410	1	14	14	14	4	erasure	no erasure	erasure	0	4			1	1	2455	102	0	232		1	0	192	63			4				0.6999999999999999556		23.3098591549295761638	102	117	87	177	207	14	1	wind	cloud	Planet1A.png	Ship1A.png	Mushroom1A.png	0.0029999999999999996	0.2493000000000000216
6.6.1	mac	0	2023-12-01	11:56:42	1	2	1	experiment	1	feedback	490	510	700	430	1	15	14	14	4	erasure	no erasure	erasure	0	4			1	1	2455	102	0	232		1	0	192	63	336.3120000000000118234	4671	30	10	10	0.857483011870058931	0.6999999999999999556		23.3098591549295761638	102	117	87	177	207	14	1	wind	cloud	Planet1A.png	Ship1A.png	Mushroom1A.png	0.0029999999999999996	0.2523000000000000242
6.6.1	mac	0	2023-12-01	11:56:42	1	2	1	experiment	1	clock	290	570	3222	430	1	15	15	15	5	erasure	erasure	erasure	1	1			1	2	2455	21	1	232	0	0	2	111	40			30				0.6999999999999999556	0	22	21	36	6	96	126	15	1	wind	cloud	Planet1A.png	Ship1A.png	Mushroom1A.png	0.0029999999999999996	0.2523000000000000242
6.6.1	mac	0	2023-12-01	11:56:42	1	2	1	experiment	1	feedback	290	570	700	580	1	16	15	15	5	erasure	erasure	erasure	0	1			1	2	2455	21	1	232	1	0	2	111	40	105.9839999999999946567	1472	1	10	1	0.6686238659705556753	0.6999999999999999556	1	22	21	36	6	96	126	15	1	wind	cloud	Planet1A.png	Ship1A.png	Mushroom1A.png	0.0029999999999999996	0.2553000000000000269
6.6.1	mac	0	2023-12-01	11:56:42	1	2	1	experiment	1	clock	470	660	2475	580	1	16	16	16	6	erasure	erasure	erasure	0	2			1	2	2455	21	1	232	1	0	2	111	55			1				0.6999999999999999556	1	22	21	36	6	96	126	16	1	wind	cloud	Planet1A.png	Ship1A.png	Mushroom1A.png	0.0029999999999999996	0.2553000000000000269
6.6.1	mac	0	2023-12-01	11:56:42	1	2	1	experiment	1	feedback	470	660	700	550	1	17	16	16	6	erasure	erasure	erasure	0	2			1	2	2455	21	1	232	2	0	2	111	55	106.2000000000000028422	1475	1	10	1	0.458589432169354827	0.6999999999999999556	1	22	21	36	6	96	126	16	1	wind	cloud	Planet1A.png	Ship1A.png	Mushroom1A.png	0.0029999999999999996	0.2583000000000000296
6.6.1	mac	0	2023-12-01	11:56:42	1	2	1	experiment	1	clock	200	600	680	550	1	17	17	17	7	erasure	no erasure	erasure	0	3			1	2	2455	21	0	232		1	1	111	24			1				0.6999999999999999556		34.6792452830188722146	21	36	6	96	126	17	1	wind	cloud	Planet1A.png	Ship1A.png	Mushroom1A.png	0.0029999999999999996	0.2583000000000000296
6.6.1	mac	0	2023-12-01	11:56:42	1	2	1	experiment	1	feedback	200	600	700	310	1	18	17	17	7	erasure	no erasure	erasure	0	3			1	2	2455	21	0	232		1	1	111	24	225.3600000000000136424	3130	66	66	66	0.284889930459877927	0.6999999999999999556		34.6792452830188722146	21	36	6	96	126	17	1	wind	cloud	Planet1A.png	Ship1A.png	Mushroom1A.png	0.0197999999999999982	0.2781000000000000139
6.6.1	mac	0	2023-12-01	11:56:42	1	2	1	experiment	1	clock	410	520	252	310	1	18	18	18	8	erasure	no erasure	erasure	0	4			1	2	2455	21	0	232		1	0	111	53			66				0.6999999999999999556		41.4150943396226409732	21	36	6	96	126	18	1	wind	cloud	Planet1A.png	Ship1A.png	Mushroom1A.png	0.0197999999999999982	0.2781000000000000139
6.6.1	mac	0	2023-12-01	11:56:42	1	2	1	experiment	1	feedback	410	520	700	570	1	19	18	18	8	erasure	no erasure	erasure	0	4			1	2	2455	21	0	232		1	0	111	53	298.9440000000000168257	4152	100	10	10	0.7129715459218648466	0.6999999999999999556		41.4150943396226409732	21	36	6	96	126	18	1	wind	cloud	Planet1A.png	Ship1A.png	Mushroom1A.png	0.0029999999999999996	0.2811000000000000165
6.6.1	mac	0	2023-12-01	11:56:42	1	2	1	experiment	1	clock	450	620	2273	570	1	19	19	19	9	erasure	erasure	erasure	1	1			1	3	2455	34	1	232	0	0	2	124	64			100				0.6999999999999999556	0	33	34	49	19	109	139	19	1	wind	cloud	Planet1A.png	Ship1A.png	Mushroom1A.png	0.0029999999999999996	0.2811000000000000165
6.6.1	mac	0	2023-12-01	11:56:42	1	2	1	experiment	1	feedback	450	620	700	320	1	20	19	19	9	erasure	erasure	erasure	0	1			1	3	2455	34	1	232	1	0	2	124	64	124.0559999999999973852	1723	7	10	7	0.1299959915061471849	0.6999999999999999556	1	33	34	49	19	109	139	19	1	wind	cloud	Planet1A.png	Ship1A.png	Mushroom1A.png	0.0029999999999999996	0.2841000000000000192
6.6.1	mac	0	2023-12-01	11:56:42	1	2	1	experiment	1	clock	280	610	2199	320	1	20	20	20	10	erasure	erasure	erasure	0	2			1	3	2455	34	1	232	1	0	2	124	65			7				0.6999999999999999556	1	33	34	49	19	109	139	20	1	wind	cloud	Planet1A.png	Ship1A.png	Mushroom1A.png	0.0029999999999999996	0.2841000000000000192
6.6.1	mac	0	2023-12-01	11:56:42	1	2	1	experiment	1	feedback	280	610	700	490	1	21	20	20	10	erasure	erasure	erasure	0	2			1	3	2455	34	1	232	2	0	2	124	65	122.3280000000000029559	1699	7	10	10	0.9962189185889946952	0.6999999999999999556	1	33	34	49	19	109	139	20	1	wind	cloud	Planet1A.png	Ship1A.png	Mushroom1A.png	0.0029999999999999996	0.2871000000000000218
6.6.1	mac	0	2023-12-01	11:56:42	1	2	1	experiment	1	clock	160	630	359	490	1	21	21	21	1	no erasure	no erasure	erasure	0	3			1	3	2455	34	0	232		0	2	124	23			7				0.6999999999999999556		41.9491525423728788269	34	49	19	109	139	21	1	wind	cloud	Planet1A.png	Ship1A.png	Mushroom1A.png	0.0029999999999999996	0.2871000000000000218
6.6.1	mac	0	2023-12-01	11:56:42	1	2	1	experiment	1	feedback	160	630	700	400	1	22	21	21	1	no erasure	no erasure	erasure	0	3			1	3	2455	34	0	232		0	2	124	23	198.6479999999999961346	2759	88	88	88	0.3585463111192328522	0.6999999999999999556		41.9491525423728788269	34	49	19	109	139	21	1	wind	cloud	Planet1A.png	Ship1A.png	Mushroom1A.png	0.0263999999999999964	0.3135000000000000009
6.6.1	mac	0	2023-12-01	11:56:42	1	2	1	experiment	1	preFreeze	340	640	243	400	1	22	22	22	2	no erasure	no erasure	no erasure	0	4			1	3	2455	34	0	232		0	2	124	61			88				0.6999999999999999556		46.2881355932203391035	34	49	19	109	139	22	1	wind	cloud	Planet1A.png	Ship1A.png	Mushroom1A.png	0.0263999999999999964	0.3135000000000000009
