build	computer.platform	computer.touch	date	time	subject	group	sessionid	blockcode	blocknum	trialcode	list.ITI.currentvalue	list.preClockFreeze.currentvalue	latency	list.ISI.currentvalue	block	trialCount	trial	run_trial	block_trial	block_type	trial_type	last_block_type	generate_new_erasure	trial_since_erasure_gen	deg_index_att	deg_index_era	att_index	era_index	seed	list.era_loc.currentvalue	has_erasure	list.att_loc.currentvalue	n_clicks	timeout_block	timeouts_remain	stim_center_deg	startPos	pos_shifted	rt_shifted	mag	inc_rg	inc	rng	freq	choose_stim	erasure_value	erasure_RT	right_index	left_index	stim_left_deg	stim_right_deg	trial	erasure_blocks	attentional_control	local_uncertainty	picture.planet.item.1	picture.animatedCircle.item.1	picture.feedback2.items.1	picture.stim.item.1	Earnings	totalEarnings
6.6.1	mac	0	2023-12-01	16:28:53	1	1	1	instructions	1	instructions1			830		0		0	0					1				0	0	6820					0	2		0	0	0	0	0	0		0.6999999999999999556								0	0	cloud	wind	Planet1A.png	Ship1A.png	blank.png	fog0.png		0
6.6.1	mac	0	2023-12-01	16:28:53	1	1	1	instructions	1	instructions1_1			420		0		0	0					1				0	0	6820					0	2		0	0	0	0	0	0		0.6999999999999999556								0	0	cloud	wind	Planet1A.png	Ship1A.png	blank.png	fog0.png		0
6.6.1	mac	0	2023-12-01	16:28:53	1	1	1	instructions	1	instructions1_2			326		0		0	0					1				0	0	6820					0	2		0	0	0	0	0	0		0.6999999999999999556								0	0	cloud	wind	Planet1A.png	Ship1A.png	blank.png	fog0.png		0
6.6.1	mac	0	2023-12-01	16:28:53	1	1	1	instructions	1	displayGoodJob			763		0		0	0					1				0	0	6820					0	2		0	0	0	0	0	0		0.6999999999999999556								0	0	cloud	wind	Planet1A.png	Ship1A.png	blank.png	fog0.png		0
6.6.1	mac	0	2023-12-01	16:28:53	1	1	1	instructions	1	displayGoodJob			350		0		0	0					1				0	0	6820					0	2		0	0	0	0	0	0		0.6999999999999999556								0	0	cloud	wind	Planet1A.png	Ship1A.png	blank.png	fog0.png		0
6.6.1	mac	0	2023-12-01	16:28:53	1	1	1	instructions	1	feedback2_5			3000		0		0	0					1				0	0	6820					0	2		0	0	0	0	0	0		0.6999999999999999556								0	0	cloud	wind	Planet1A.png	Ship1A.png	timeout.png	fog0.png	0	0
6.6.1	mac	0	2023-12-01	16:28:53	1	1	1	instructions	1	instructions3			758		0		0	0					1				0	0	6820					0	2		0	0	0	0	0	0		0.6999999999999999556								0	0	cloud	wind	Planet1A.png	Ship1A.png	timeout.png	fog0.png	0	0
6.6.1	mac	0	2023-12-01	16:28:53	1	1	1	instructions	1	instructions4			2914		0		0	0					1				0	0	6820					0	2	210	75	0	0	0	0	0		0.6999999999999999556								0	0	cloud	wind	Planet1A.png	Ship1A.png	timeout.png	wind0.png	0	0
6.6.1	mac	0	2023-12-01	16:28:53	1	1	1	instructions	1	sampleResponse			3000		0		0	0					1				0	0	6820					0	2	210	75	209.807999999999992724	2914	0	0	0		0.6999999999999999556								0	0	cloud	wind	Planet1A.png	Ship1A.png	timeout.png	wind0.png	0	0
6.6.1	mac	0	2023-12-01	16:28:53	1	1	1	instructions	1	instructions5			1253		0		0	0					1				0	0	6820					0	2	210	75	209.807999999999992724	2914	0	0	0		0.6999999999999999556								0	0	cloud	wind	Planet1A.png	Ship1A.png	timeout.png	wind0.png	0	0
6.6.1	mac	0	2023-12-01	16:28:53	1	1	1	instructions	1	instructions5_1			1135		0		0	0					1				0	0	6820					0	2	210	75	209.807999999999992724	2914	0	0	0		0.6999999999999999556								0	0	cloud	wind	Planet1A.png	Ship1A.png	timeout.png	wind0.png	0	0
6.6.1	mac	0	2023-12-01	16:28:53	1	1	1	instructions	1	dummytrial			100		0		0	0					1				0	0	6820					0	2	210	75	209.807999999999992724	2914	0	0	0		0.6999999999999999556								0	0	cloud	wind	Planet1A.png	Ship1A.png	timeout.png	wind0.png	0	0
6.6.1	mac	0	2023-12-01	16:28:53	1	1	1	instructions	1	posfeedback1			675		0		0	0					1				0	0	6820					0	2	210	75	209.807999999999992724	2914	0	0	0		0.6999999999999999556								0	0	cloud	wind	Planet1A.png	Ship1A.png	timeout.png	wind0.png	0	0
6.6.1	mac	0	2023-12-01	16:28:53	1	1	1	instructions	1	instructions5_2			665		0		0	0					1				0	0	6820					0	2	210	75	209.807999999999992724	2914	0	0	0		0.6999999999999999556								0	0	cloud	wind	Planet1A.png	Ship1A.png	timeout.png	fog0.png	0	0
6.6.1	mac	0	2023-12-01	16:28:53	1	1	1	instructions	1	dummytrial1			100		0		0	0					1				0	0	6820					0	2	210	75	209.807999999999992724	2914	0	0	0		0.6999999999999999556								0	0	cloud	wind	Planet1A.png	Ship1A.png	timeout.png	fog0.png	0	0
6.6.1	mac	0	2023-12-01	16:28:53	1	1	1	instructions	1	posfeedback2			482		0		0	0					1				0	0	6820					0	2	210	75	209.807999999999992724	2914	0	0	0		0.6999999999999999556								0	0	cloud	wind	Planet1A.png	Ship1A.png	timeout.png	fog0.png	0	0
6.6.1	mac	0	2023-12-01	16:28:53	1	1	1	instructions	1	instructions5_3			470		0		0	0					1				0	0	6820					0	2	210	75	209.807999999999992724	2914	0	0	0		0.6999999999999999556								0	0	cloud	wind	Planet1A.png	Ship1A.png	timeout.png	fog0.png	0	0
6.6.1	mac	0	2023-12-01	16:28:53	1	1	1	instructions	1	instructions6			393		0		0	0					1				0	0	6820					0	2	210	75	209.807999999999992724	2914	0	0	0		0.6999999999999999556								0	0	cloud	wind	Planet1A.png	Ship1A.png	timeout.png	fog0.png	0	0
6.6.1	mac	0	2023-12-01	16:28:53	1	1	1	instructions	1	countdown			1000		0		0	0					1				0	0	6820					0	2	210	75	209.807999999999992724	2914	0	0	0		0.6999999999999999556								0	0	cloud	wind	Planet1A.png	Ship1A.png	timeout.png	fog0.png	0	0
6.6.1	mac	0	2023-12-01	16:28:53	1	1	1	experiment	2	clock	100	560	299		1	1	1	1	1	no erasure	no erasure		1				0	0	6820		0			0	2	210	9			0				0.6999999999999999556						195	225	1	0	cloud	wind	Planet1A.png	Ship1A.png	timeout.png	blank.png	0	0
6.6.1	mac	0	2023-12-01	16:28:53	1	1	1	experiment	2	feedback	100	560	700	490	1	2	1	1	1	no erasure	no erasure		0				0	0	6820		0			0	2	210	9	143.9279999999999972715	1999	104	104	104	0.3213455405368808582	0.6999999999999999556						195	225	1	0	cloud	wind	Planet1A.png	Ship1A.png	Mushroom1A.png	blank.png	0.0311999999999999986	0.0311999999999999986
6.6.1	mac	0	2023-12-01	16:28:53	1	1	1	experiment	2	clock	210	690	115	490	1	2	2	2	2	no erasure	no erasure	no erasure	0				0	0	6820		0			0	2	210	95			104				0.6999999999999999556						195	225	2	0	cloud	wind	Planet1A.png	Ship1A.png	Mushroom1A.png	blank.png	0.0311999999999999986	0.0311999999999999986
6.6.1	mac	0	2023-12-01	16:28:53	1	1	1	experiment	2	feedback	210	690	700	600	1	3	2	2	2	no erasure	no erasure	no erasure	0				0	0	6820		0			0	2	210	95	80.2800000000000011369	1115	194	150	194	0.494664355761991914	0.6999999999999999556						195	225	2	0	cloud	wind	Planet1A.png	Ship1A.png	Mushroom1A.png	blank.png	0.0449999999999999983	0.07619999999999999
6.6.1	mac	0	2023-12-01	16:28:53	1	1	1	experiment	2	clock	130	650	239	600	1	3	3	3	3	no erasure	no erasure	no erasure	0				0	0	6820		0			0	2	210	47			194				0.6999999999999999556						195	225	3	0	cloud	wind	Planet1A.png	Ship1A.png	Mushroom1A.png	blank.png	0.0449999999999999983	0.07619999999999999
6.6.1	mac	0	2023-12-01	16:28:53	1	1	1	experiment	2	feedback	130	650	700	390	1	4	3	3	3	no erasure	no erasure	no erasure	0				0	0	6820		0			0	2	210	47	276.4080000000000154614	3839	21	10	10	0.7705564952386907418	0.6999999999999999556						195	225	3	0	cloud	wind	Planet1A.png	Ship1A.png	Mushroom1A.png	blank.png	0.0029999999999999996	0.0791999999999999926
6.6.1	mac	0	2023-12-01	16:28:53	1	1	1	experiment	2	clock	310	500	528	390	1	4	4	4	4	no erasure	no erasure	no erasure	0				0	0	6820		0			0	2	210	3			21				0.6999999999999999556						195	225	4	0	cloud	wind	Planet1A.png	Ship1A.png	Mushroom1A.png	blank.png	0.0029999999999999996	0.0791999999999999926
6.6.1	mac	0	2023-12-01	16:28:53	1	1	1	experiment	2	feedback	310	500	700	540	1	5	4	4	4	no erasure	no erasure	no erasure	0				0	0	6820		0			0	2	210	3	138.8160000000000025011	1928	115	115	115	0.2039776931526087467	0.6999999999999999556						195	225	4	0	cloud	wind	Planet1A.png	Ship1A.png	Mushroom1A.png	blank.png	0.0344999999999999959	0.1136999999999999955
6.6.1	mac	0	2023-12-01	16:28:53	1	1	1	experiment	2	clock	140	550	362	540	1	5	5	5	5	no erasure	no erasure	no erasure	0				0	0	6820		0			0	2	210	58			115				0.6999999999999999556						195	225	5	0	cloud	wind	Planet1A.png	Ship1A.png	Mushroom1A.png	blank.png	0.0344999999999999959	0.1136999999999999955
6.6.1	mac	0	2023-12-01	16:28:53	1	1	1	experiment	2	feedback	140	550	700	340	1	6	5	5	5	no erasure	no erasure	no erasure	0				0	0	6820		0			0	2	210	58	324.8639999999999758984	4512	94	94	94	0.6319346471298333823	0.6999999999999999556						195	225	5	0	cloud	wind	Planet1A.png	Ship1A.png	Mushroom1A.png	blank.png	0.0281999999999999959	0.1418999999999999984
6.6.1	mac	0	2023-12-01	16:28:53	1	1	1	experiment	2	clock	410	520	426	340	1	6	6	6	6	no erasure	no erasure	no erasure	0				0	0	6820		0			0	2	210	97			94				0.6999999999999999556						195	225	6	0	cloud	wind	Planet1A.png	Ship1A.png	Mushroom1A.png	blank.png	0.0281999999999999959	0.1418999999999999984
6.6.1	mac	0	2023-12-01	16:28:53	1	1	1	experiment	2	feedback	410	520	700	280	1	7	6	6	6	no erasure	no erasure	no erasure	0				0	0	6820		0			0	2	210	97	109.8719999999999998863	1526	162	150	162	0.4161194717549066002	0.6999999999999999556						195	225	6	0	cloud	wind	Planet1A.png	Ship1A.png	Mushroom1A.png	blank.png	0.0449999999999999983	0.1869000000000000106
6.6.1	mac	0	2023-12-01	16:28:53	1	1	1	experiment	2	clock	110	580	324	280	1	7	7	7	7	no erasure	no erasure	no erasure	0				0	0	6820		0			0	2	210	64			162				0.6999999999999999556						195	225	7	0	cloud	wind	Planet1A.png	Ship1A.png	Mushroom1A.png	blank.png	0.0449999999999999983	0.1869000000000000106
6.6.1	mac	0	2023-12-01	16:28:53	1	1	1	experiment	2	feedback	110	580	700	430	1	8	7	7	7	no erasure	no erasure	no erasure	0				0	0	6820		0			0	2	210	64	343.7280000000000086402	4774	125	125	125	0.0545249835249327561	0.6999999999999999556						195	225	7	0	cloud	wind	Planet1A.png	Ship1A.png	Mushroom1A.png	blank.png	0.0374999999999999986	0.2244000000000000161
6.6.1	mac	0	2023-12-01	16:28:53	1	1	1	experiment	2	clock	350	510	267	430	1	8	8	8	8	no erasure	no erasure	no erasure	0				0	0	6820		0			0	2	210	3			125				0.6999999999999999556						195	225	8	0	cloud	wind	Planet1A.png	Ship1A.png	Mushroom1A.png	blank.png	0.0374999999999999986	0.2244000000000000161
6.6.1	mac	0	2023-12-01	16:28:53	1	1	1	experiment	2	feedback	350	510	700	400	1	9	8	8	8	no erasure	no erasure	no erasure	0				0	0	6820		0			0	2	210	3	120.0240000000000009095	1667	148	148	148	0.3873344225313827272	0.6999999999999999556						195	225	8	0	cloud	wind	Planet1A.png	Ship1A.png	Mushroom1A.png	blank.png	0.044399999999999995	0.2688000000000000389
6.6.1	mac	0	2023-12-01	16:28:53	1	1	1	experiment	2	clock	370	610	271	400	1	9	9	9	9	no erasure	no erasure	no erasure	0				0	0	6820		0			0	2	210	27			148				0.6999999999999999556						195	225	9	0	cloud	wind	Planet1A.png	Ship1A.png	Mushroom1A.png	blank.png	0.044399999999999995	0.2688000000000000389
6.6.1	mac	0	2023-12-01	16:28:53	1	1	1	experiment	2	feedback	370	610	700	360	1	10	9	9	9	no erasure	no erasure	no erasure	0				0	0	6820		0			0	2	210	27	206.7119999999999890861	2871	15	10	10	0.7184286023765869	0.6999999999999999556						195	225	9	0	cloud	wind	Planet1A.png	Ship1A.png	Mushroom1A.png	blank.png	0.0029999999999999996	0.2718000000000000416
6.6.1	mac	0	2023-12-01	16:28:53	1	1	1	experiment	2	clock	320	600	266	360	1	10	10	10	10	no erasure	no erasure	no erasure	0				0	0	6820		0			0	2	210	45			15				0.6999999999999999556						195	225	10	0	cloud	wind	Planet1A.png	Ship1A.png	Mushroom1A.png	blank.png	0.0029999999999999996	0.2718000000000000416
6.6.1	mac	0	2023-12-01	16:28:53	1	1	1	experiment	2	feedback	320	600	700	580	1	11	10	10	10	no erasure	no erasure	no erasure	0				0	0	6820		0			0	2	210	45	271.1519999999999868123	3766	15	15	15	0.4735399723224202329	0.6999999999999999556						195	225	10	0	cloud	wind	Planet1A.png	Ship1A.png	Mushroom1A.png	blank.png	0.0044999999999999997	0.2763000000000000456
6.6.1	mac	0	2023-12-01	16:28:53	1	1	1	experiment	2	clock	330	680	2734	580	1	11	11	11	1	attention	attention	no erasure	0				1	0	6820		0	158	0	0	2	248	89			15				0.6999999999999999556	0					233	263	11	0	cloud	wind	Planet1A.png	Ship1A.png	Mushroom1A.png	fog0.png	0.0044999999999999997	0.2763000000000000456
6.6.1	mac	0	2023-12-01	16:28:53	1	1	1	experiment	2	feedback	330	680	700	530	1	12	11	11	1	attention	attention	no erasure	0				1	0	6820		0	158	1	0	2	248	89	247.2479999999999904503	3434	2	10	2	0.5634377504613804488	0.6999999999999999556	1					233	263	11	0	cloud	wind	Planet1A.png	Ship1A.png	Mushroom1A.png	fog0.png	0.0029999999999999996	0.2793000000000000482
6.6.1	mac	0	2023-12-01	16:28:53	1	1	1	experiment	2	clock	420	570	336	530	1	12	12	12	2	attention	attention	attention	0				1	0	6820		0	158	0	0	2	248	27			2				0.6999999999999999556	0					233	263	12	0	cloud	wind	Planet1A.png	Ship1A.png	Mushroom1A.png	fog0.png	0.0029999999999999996	0.2793000000000000482
6.6.1	mac	0	2023-12-01	16:28:53	1	1	1	experiment	2	feedback	420	570	700	230	1	13	12	12	2	attention	attention	attention	0				1	0	6820		0	158	0	0	2	248	27	211.3919999999999959073	2936	11	10	10	0.8266975462498835636	0.6999999999999999556	0					233	263	12	0	cloud	wind	Planet1A.png	Ship1A.png	Mushroom1A.png	fog0.png	0.0029999999999999996	0.2823000000000000509
6.6.1	mac	0	2023-12-01	16:28:53	1	1	1	experiment	2	clock	480	640	256	230	1	13	13	13	3	attention	attention	attention	0				1	0	6820		0	158	0	0	2	248	59			11				0.6999999999999999556	0					233	263	13	0	cloud	wind	Planet1A.png	Ship1A.png	Mushroom1A.png	fog0.png	0.0029999999999999996	0.2823000000000000509
6.6.1	mac	0	2023-12-01	16:28:53	1	1	1	experiment	2	feedback	480	640	700	440	1	14	13	13	3	attention	attention	attention	0				1	0	6820		0	158	0	0	2	248	59	320.8319999999999936335	4456	74	10	10	0.9958571929009298884	0.6999999999999999556	0					233	263	13	0	cloud	wind	Planet1A.png	Ship1A.png	Mushroom1A.png	fog0.png	0.0029999999999999996	0.2853000000000000536
6.6.1	mac	0	2023-12-01	16:28:53	1	1	1	experiment	2	clock	120	590	286	440	1	14	14	14	4	attention	attention	attention	0				1	0	6820		0	158	0	0	2	248	18			74				0.6999999999999999556	0					233	263	14	0	cloud	wind	Planet1A.png	Ship1A.png	Mushroom1A.png	fog0.png	0.0029999999999999996	0.2853000000000000536
6.6.1	mac	0	2023-12-01	16:28:53	1	1	1	experiment	2	feedback	120	590	700	330	1	15	14	14	4	attention	attention	attention	0				1	0	6820		0	158	0	0	2	248	18	175.3919999999999959073	2436	41	10	10	0.904130046699226364	0.6999999999999999556	0					233	263	14	0	cloud	wind	Planet1A.png	Ship1A.png	Mushroom1A.png	fog0.png	0.0029999999999999996	0.2883000000000000562
6.6.1	mac	0	2023-12-01	16:28:53	1	1	1	experiment	2	clock	400	530	254	330	1	15	15	15	5	attention	attention	attention	0				1	0	6820		0	158	0	0	2	248	12			41				0.6999999999999999556	0					233	263	15	0	cloud	wind	Planet1A.png	Ship1A.png	Mushroom1A.png	fog0.png	0.0029999999999999996	0.2883000000000000562
6.6.1	mac	0	2023-12-01	16:28:53	1	1	1	experiment	2	feedback	400	530	700	240	1	16	15	15	5	attention	attention	attention	0				1	0	6820		0	158	0	0	2	248	12	151.4879999999999995453	2104	66	66	66	0.1649718268692893508	0.6999999999999999556	0					233	263	15	0	cloud	wind	Planet1A.png	Ship1A.png	Mushroom1A.png	fog0.png	0.0197999999999999982	0.3081000000000000405
6.6.1	mac	0	2023-12-01	16:28:53	1	1	1	experiment	2	clock	460	540	369	240	1	16	16	16	6	attention	attention	attention	0				1	0	6820		0	158	0	0	2	248	88			66				0.6999999999999999556	0					233	263	16	0	cloud	wind	Planet1A.png	Ship1A.png	Mushroom1A.png	fog0.png	0.0197999999999999982	0.3081000000000000405
6.6.1	mac	0	2023-12-01	16:28:53	1	1	1	experiment	2	feedback	460	540	700	590	1	17	16	16	6	attention	attention	attention	0				1	0	6820		0	158	0	0	2	248	88	73.3679999999999949978	1019	131	10	10	0.8630373566092545135	0.6999999999999999556	0					233	263	16	0	cloud	wind	Planet1A.png	Ship1A.png	Mushroom1A.png	fog0.png	0.0029999999999999996	0.3111000000000000432
6.6.1	mac	0	2023-12-01	16:28:53	1	1	1	experiment	2	clock	500	670	208	590	1	17	17	17	7	attention	attention	attention	0				1	0	6820		0	158	0	0	2	248	15			131				0.6999999999999999556	0					233	263	17	0	cloud	wind	Planet1A.png	Ship1A.png	Mushroom1A.png	fog0.png	0.0029999999999999996	0.3111000000000000432
6.6.1	mac	0	2023-12-01	16:28:53	1	1	1	experiment	2	feedback	500	670	700	270	1	18	17	17	7	attention	attention	attention	0				1	0	6820		0	158	0	0	2	248	15	158.9759999999999990905	2208	49	49	49	0.1679924119189363796	0.6999999999999999556	0					233	263	17	0	cloud	wind	Planet1A.png	Ship1A.png	Mushroom1A.png	fog0.png	0.0146999999999999995	0.325800000000000034
6.6.1	mac	0	2023-12-01	16:28:53	1	1	1	experiment	2	clock	440	660	325	270	1	18	18	18	8	attention	attention	attention	0				1	0	6820		0	158	0	0	2	248	18			49				0.6999999999999999556	0					233	263	18	0	cloud	wind	Planet1A.png	Ship1A.png	Mushroom1A.png	fog0.png	0.0146999999999999995	0.325800000000000034
6.6.1	mac	0	2023-12-01	16:28:53	1	1	1	experiment	2	feedback	440	660	700	500	1	19	18	18	8	attention	attention	attention	0				1	0	6820		0	158	0	0	2	248	18	178.1999999999999886313	2475	28	28	28	0.6787238341473796899	0.6999999999999999556	0					233	263	18	0	cloud	wind	Planet1A.png	Ship1A.png	Mushroom1A.png	fog0.png	0.0083999999999999995	0.3342000000000000526
6.6.1	mac	0	2023-12-01	16:28:53	1	1	1	experiment	2	clock	290	620	267	500	1	19	19	19	9	attention	attention	attention	0				1	0	6820		0	158	0	0	2	248	11			28				0.6999999999999999556	0					233	263	19	0	cloud	wind	Planet1A.png	Ship1A.png	Mushroom1A.png	fog0.png	0.0083999999999999995	0.3342000000000000526
6.6.1	mac	0	2023-12-01	16:28:53	1	1	1	experiment	2	feedback	290	620	700	250	1	20	19	19	9	attention	attention	attention	0				1	0	6820		0	158	0	0	2	248	11	148.8240000000000122782	2067	49	49	49	0.443231321508817222	0.6999999999999999556	0					233	263	19	0	cloud	wind	Planet1A.png	Ship1A.png	Mushroom1A.png	fog0.png	0.0146999999999999995	0.3489000000000000434
6.6.1	mac	0	2023-12-01	16:28:53	1	1	1	experiment	2	clock	240	630	223	250	1	20	20	20	10	attention	attention	attention	0				1	0	6820		0	158	0	0	2	248	45			49				0.6999999999999999556	0					233	263	20	0	cloud	wind	Planet1A.png	Ship1A.png	Mushroom1A.png	fog0.png	0.0146999999999999995	0.3489000000000000434
6.6.1	mac	0	2023-12-01	16:28:53	1	1	1	experiment	2	feedback	240	630	700	320	1	21	20	20	10	attention	attention	attention	0				1	0	6820		0	158	0	0	2	248	45	268.0559999999999831743	3723	6	10	6	0.4357705694706576205	0.6999999999999999556	0					233	263	20	0	cloud	wind	Planet1A.png	Ship1A.png	Mushroom1A.png	fog0.png	0.0029999999999999996	0.3519000000000000461
6.6.1	mac	0	2023-12-01	16:28:53	1	1	1	experiment	2	clock	250	700	3346	320	1	21	21	21	1	erasure	erasure	attention	1	1			1	2	6820	174	1	158	0	0	2	264	82			6				0.6999999999999999556	0	10	174	189	159	249	279	21	1	cloud	wind	Planet1A.png	Ship1A.png	Mushroom1A.png	wind0.png	0.0029999999999999996	0.3519000000000000461
6.6.1	mac	0	2023-12-01	16:28:53	1	1	1	experiment	2	feedback	250	700	700	520	1	22	21	21	1	erasure	erasure	attention	0	1			1	2	6820	174	1	158	1	0	2	264	82	266.1120000000000231921	3696	5	10	5	0.1861674471726099678	0.6999999999999999556	1	10	174	189	159	249	279	21	1	cloud	wind	Planet1A.png	Ship1A.png	Mushroom1A.png	wind0.png	0.0029999999999999996	0.3549000000000000488
6.6.1	mac	0	2023-12-01	16:28:53	1	1	1	experiment	2	clock	490	560	4647	520	1	22	22	22	2	erasure	erasure	erasure	0	2			1	2	6820	174	1	158	1	0	2	264	56			5				0.6999999999999999556	1	10	174	189	159	249	279	22	1	cloud	wind	Planet1A.png	Ship1A.png	Mushroom1A.png	wind0.png	0.0029999999999999996	0.3549000000000000488
6.6.1	mac	0	2023-12-01	16:28:53	1	1	1	experiment	2	feedback	490	560	700	550	1	23	22	22	2	erasure	erasure	erasure	0	2			1	2	6820	174	1	158	2	0	2	264	56	266.1840000000000259206	3697	4	10	10	0.7863162517981409083	0.6999999999999999556	1	10	174	189	159	249	279	22	1	cloud	wind	Planet1A.png	Ship1A.png	Mushroom1A.png	wind0.png	0.0029999999999999996	0.3579000000000000514
6.6.1	mac	0	2023-12-01	16:28:53	1	1	1	experiment	2	clock	390	630	194	550	1	23	23	23	3	erasure	no erasure	erasure	0	3			1	2	6820	174	0	158		1	1	264	80			4				0.6999999999999999556		7.3947368421052628307	174	189	159	249	279	23	1	cloud	wind	Planet1A.png	Ship1A.png	Mushroom1A.png	blank.png	0.0029999999999999996	0.3579000000000000514
6.6.1	mac	0	2023-12-01	16:28:53	1	1	1	experiment	2	feedback	390	630	700	480	1	24	23	23	3	erasure	no erasure	erasure	0	3			1	2	6820	174	0	158		1	1	264	80	31.9679999999999999716	444	51	10	10	0.9175514050101748476	0.6999999999999999556		7.3947368421052628307	174	189	159	249	279	23	1	cloud	wind	Planet1A.png	Ship1A.png	Mushroom1A.png	blank.png	0.0029999999999999996	0.3609000000000000541
6.6.1	mac	0	2023-12-01	16:28:53	1	1	1	experiment	2	clock	470	640	336	480	1	24	24	24	4	erasure	no erasure	erasure	0	4			1	2	6820	174	0	158		1	0	264	14			51				0.6999999999999999556		6.0921052631578946901	174	189	159	249	279	24	1	cloud	wind	Planet1A.png	Ship1A.png	Mushroom1A.png	blank.png	0.0029999999999999996	0.3609000000000000541
6.6.1	mac	0	2023-12-01	16:28:53	1	1	1	experiment	2	feedback	470	640	700	220	1	25	24	24	4	erasure	no erasure	erasure	0	4			1	2	6820	174	0	158		1	0	264	14	164.5920000000000129603	2286	12.0763157894736838927	12	12.0763157894736838927	0.0706627101336286256	0.6999999999999999556		6.0921052631578946901	174	189	159	249	279	24	1	cloud	wind	Planet1A.png	Ship1A.png	Mushroom1A.png	blank.png	0.0035999999999999999	0.3645000000000000462
6.6.1	mac	0	2023-12-01	16:28:53	1	1	1	experiment	2	clock	170	520	2810	220	1	25	25	25	5	erasure	erasure	erasure	1	1			1	3	6820	300	1	158	0	0	2	30	27			12.0763157894736838927				0.6999999999999999556	0	51	300	315	285	15	45	25	1	cloud	wind	Planet1A.png	Ship1A.png	Mushroom1A.png	wind0.png	0.0035999999999999999	0.3645000000000000462
6.6.1	mac	0	2023-12-01	16:28:53	1	1	1	experiment	2	feedback	170	520	700	460	1	26	25	25	5	erasure	erasure	erasure	0	1			1	3	6820	300	1	158	1	0	2	30	27	29.5199999999999995737	410	30	10	10	0.9521283840183467628	0.6999999999999999556	1	51	300	315	285	15	45	25	1	cloud	wind	Planet1A.png	Ship1A.png	Mushroom1A.png	wind0.png	0.0029999999999999996	0.3675000000000000488
6.6.1	mac	0	2023-12-01	16:28:53	1	1	1	experiment	2	clock	430	580	3732	460	1	26	26	26	6	erasure	erasure	erasure	0	2			1	3	6820	300	1	158	1	0	2	30	9			30				0.6999999999999999556	1	51	300	315	285	15	45	26	1	cloud	wind	Planet1A.png	Ship1A.png	Mushroom1A.png	wind0.png	0.0029999999999999996	0.3675000000000000488
6.6.1	mac	0	2023-12-01	16:28:53	1	1	1	experiment	2	feedback	430	580	700	510	1	27	26	26	6	erasure	erasure	erasure	0	2			1	3	6820	300	1	158	2	0	2	30	9	31.1039999999999992042	432	1	10	1	0.4987579529403610712	0.6999999999999999556	1	51	300	315	285	15	45	26	1	cloud	wind	Planet1A.png	Ship1A.png	Mushroom1A.png	wind0.png	0.0029999999999999996	0.3705000000000000515
6.6.1	mac	0	2023-12-01	16:28:53	1	1	1	experiment	2	clock	340	650	200	510	1	27	27	27	7	erasure	no erasure	erasure	0	3			1	3	6820	300	0	158		1	1	30	63			1				0.6999999999999999556		81.6451612903225765194	300	315	285	15	45	27	1	cloud	wind	Planet1A.png	Ship1A.png	Mushroom1A.png	blank.png	0.0029999999999999996	0.3705000000000000515
6.6.1	mac	0	2023-12-01	16:28:53	1	1	1	experiment	2	feedback	340	650	700	470	1	28	27	27	7	erasure	no erasure	erasure	0	3			1	3	6820	300	0	158		1	1	30	63	331.1999999999999886313	4600	12	12	12	0.4948749138263228708	0.6999999999999999556		81.6451612903225765194	300	315	285	15	45	27	1	cloud	wind	Planet1A.png	Ship1A.png	Mushroom1A.png	blank.png	0.0035999999999999999	0.3741000000000000436
6.6.1	mac	0	2023-12-01	16:28:53	1	1	1	experiment	2	clock	220	550	244	470	1	28	28	28	8	erasure	no erasure	erasure	0	4			1	3	6820	300	0	158		1	0	30	74			12				0.6999999999999999556		130.0322580645161281154	300	315	285	15	45	28	1	cloud	wind	Planet1A.png	Ship1A.png	Mushroom1A.png	blank.png	0.0035999999999999999	0.3741000000000000436
6.6.1	mac	0	2023-12-01	16:28:53	1	1	1	experiment	2	feedback	220	550	700	450	1	29	28	28	8	erasure	no erasure	erasure	0	4			1	3	6820	300	0	158		1	0	30	74	13.9679999999999999716	194	2	10	10	0.9437413948922747098	0.6999999999999999556		130.0322580645161281154	300	315	285	15	45	28	1	cloud	wind	Planet1A.png	Ship1A.png	Mushroom1A.png	blank.png	0.0029999999999999996	0.3771000000000000463
6.6.1	mac	0	2023-12-01	16:28:53	1	1	1	experiment	2	clock	450	590	2316	450	1	29	29	29	9	erasure	erasure	erasure	1	1			1	4	6820	133	1	158	0	0	2	223	90			2				0.6999999999999999556	0	25	133	148	118	208	238	29	1	cloud	wind	Planet1A.png	Ship1A.png	Mushroom1A.png	wind0.png	0.0029999999999999996	0.3771000000000000463
6.6.1	mac	0	2023-12-01	16:28:53	1	1	1	experiment	2	feedback	450	590	700	300	1	30	29	29	9	erasure	erasure	erasure	0	1			1	4	6820	133	1	158	1	0	2	223	90	220.7520000000000095497	3066	110	110	110	0.6074521340447133211	0.6999999999999999556	1	25	133	148	118	208	238	29	1	cloud	wind	Planet1A.png	Ship1A.png	Mushroom1A.png	wind0.png	0.0329999999999999946	0.4101000000000000201
6.6.1	mac	0	2023-12-01	16:28:53	1	1	1	experiment	2	clock	300	700	3154	300	1	30	30	30	10	erasure	erasure	erasure	0	2			1	4	6820	133	1	158	1	0	2	223	73			110				0.6999999999999999556	1	25	133	148	118	208	238	30	1	cloud	wind	Planet1A.png	Ship1A.png	Mushroom1A.png	wind0.png	0.0329999999999999946	0.4101000000000000201
6.6.1	mac	0	2023-12-01	16:28:53	1	1	1	experiment	2	feedback	300	700	700	310	1	31	30	30	10	erasure	erasure	erasure	0	2			1	4	6820	133	1	158	2	0	2	223	73	219.8880000000000052296	3054	140	140	140	0.1449399995955033271	0.6999999999999999556	1	25	133	148	118	208	238	30	1	cloud	wind	Planet1A.png	Ship1A.png	Mushroom1A.png	wind0.png	0.0419999999999999957	0.4521000000000000019
6.6.1	mac	0	2023-12-01	16:28:53	1	1	1	experiment	2	clock	360	690	110	310	1	31	31	31	1	attention	attention	erasure	0	3			2	4	6820	133	0	122	0	0	2	212	9			140				0.6999999999999999556	0	38.0909090909090863875	133	148	118	197	227	31	1	cloud	wind	Planet1A.png	Ship1A.png	Mushroom1A.png	fog0.png	0.0419999999999999957	0.4521000000000000019
6.6.1	mac	0	2023-12-01	16:28:53	1	1	1	experiment	2	feedback	360	690	700	560	1	32	31	31	1	attention	attention	erasure	0	3			2	4	6820	133	0	122	0	0	2	212	9	130.3199999999999931788	1810	37.7498181818181848257	38	37.7498181818181848257	0.4857381676523336855	0.6999999999999999556	0	38.0909090909090863875	133	148	118	197	227	31	1	cloud	wind	Planet1A.png	Ship1A.png	Mushroom1A.png	fog0.png	0.0113999999999999987	0.4635000000000000231
6.6.1	mac	0	2023-12-01	16:28:53	1	1	1	experiment	2	clock	230	570	274	560	1	32	32	32	2	attention	attention	attention	0	4			2	4	6820	133	0	122	0	0	2	212	98			37.7498181818181848257				0.6999999999999999556	0	44.6363636363636331339	133	148	118	197	227	32	1	cloud	wind	Planet1A.png	Ship1A.png	Mushroom1A.png	fog0.png	0.0113999999999999987	0.4635000000000000231
6.6.1	mac	0	2023-12-01	16:28:53	1	1	1	experiment	2	feedback	230	570	700	290	1	33	32	32	2	attention	attention	attention	0	4			2	4	6820	133	0	122	0	0	2	212	98	102.528000000000005798	1424	77	77	77	0.5472771766472787069	0.6999999999999999556	0	44.6363636363636331339	133	148	118	197	227	32	1	cloud	wind	Planet1A.png	Ship1A.png	Mushroom1A.png	fog0.png	0.023099999999999999	0.4866000000000000325
6.6.1	mac	0	2023-12-01	16:28:53	1	1	1	experiment	2	clock	150	680	132	290	1	33	33	33	3	attention	attention	attention	0	5			2	4	6820	133	0	122	0	0	2	212	11			77				0.6999999999999999556	0	44.6363636363636331339	133	148	118	197	227	33	1	cloud	wind	Planet1A.png	Ship1A.png	Mushroom1A.png	fog0.png	0.023099999999999999	0.4866000000000000325
6.6.1	mac	0	2023-12-01	16:28:53	1	1	1	experiment	2	feedback	150	680	700	260	1	34	33	33	3	attention	attention	attention	0	5			2	4	6820	133	0	122	0	0	2	212	11	139.104000000000013415	1932	71.5600000000000022737	72	71.5600000000000022737	0.1355363373028897478	0.6999999999999999556	0	44.6363636363636331339	133	148	118	197	227	33	1	cloud	wind	Planet1A.png	Ship1A.png	Mushroom1A.png	fog0.png	0.0215999999999999977	0.5081999999999999851
6.6.1	mac	0	2023-12-01	16:28:53	1	1	1	experiment	2	clock	260	620	147	260	1	34	34	34	4	attention	attention	attention	0	6			2	4	6820	133	0	122	0	0	2	212	96			71.5600000000000022737				0.6999999999999999556	0	44.6363636363636331339	133	148	118	197	227	34	1	cloud	wind	Planet1A.png	Ship1A.png	Mushroom1A.png	fog0.png	0.0215999999999999977	0.5081999999999999851
6.6.1	mac	0	2023-12-01	16:28:53	1	1	1	experiment	2	feedback	260	620	700	420	1	35	34	34	4	attention	attention	attention	0	6			2	4	6820	133	0	122	0	0	2	212	96	86.1839999999999974989	1197	48	48	48	0.4725238267501173373	0.6999999999999999556	0	44.6363636363636331339	133	148	118	197	227	34	1	cloud	wind	Planet1A.png	Ship1A.png	Mushroom1A.png	fog0.png	0.0143999999999999996	0.5225999999999999535
6.6.1	mac	0	2023-12-01	16:28:53	1	1	1	experiment	2	clock	180	510	337	420	1	35	35	35	5	attention	attention	attention	0	7			2	4	6820	133	0	122	0	0	2	212	23			48				0.6999999999999999556	0	44.6363636363636331339	133	148	118	197	227	35	1	cloud	wind	Planet1A.png	Ship1A.png	Mushroom1A.png	fog0.png	0.0143999999999999996	0.5225999999999999535
6.6.1	mac	0	2023-12-01	16:28:53	1	1	1	experiment	2	feedback	180	510	700	200	1	36	35	35	5	attention	attention	attention	0	7			2	4	6820	133	0	122	1	0	2	212	23	197.0639999999999929514	2737	199	150	199	0.1873073834430676321	0.6999999999999999556	1	44.6363636363636331339	133	148	118	197	227	35	1	cloud	wind	Planet1A.png	Ship1A.png	Mushroom1A.png	fog0.png	0.0449999999999999983	0.5675999999999999934
6.6.1	mac	0	2023-12-01	16:28:53	1	1	1	experiment	2	clock	280	610	199	200	1	36	36	36	6	attention	attention	attention	0	8			2	4	6820	133	0	122	0	0	2	212	58			199				0.6999999999999999556	0	44.6363636363636331339	133	148	118	197	227	36	1	cloud	wind	Planet1A.png	Ship1A.png	Mushroom1A.png	fog0.png	0.0449999999999999983	0.5675999999999999934
6.6.1	mac	0	2023-12-01	16:28:53	1	1	1	experiment	2	feedback	280	610	700	570	1	37	36	36	6	attention	attention	attention	0	8			2	4	6820	133	0	122	0	0	2	212	58	313.1279999999999859028	4349	71	71	71	0.057733946726129845	0.6999999999999999556	0	44.6363636363636331339	133	148	118	197	227	36	1	cloud	wind	Planet1A.png	Ship1A.png	Mushroom1A.png	fog0.png	0.0212999999999999995	0.588899999999999979
6.6.1	mac	0	2023-12-01	16:28:53	1	1	1	experiment	2	clock	160	660	177	570	1	37	37	37	7	attention	attention	attention	0	9			2	4	6820	133	0	122	0	0	2	212	19			71				0.6999999999999999556	0	44.6363636363636331339	133	148	118	197	227	37	1	cloud	wind	Planet1A.png	Ship1A.png	Mushroom1A.png	fog0.png	0.0212999999999999995	0.588899999999999979
6.6.1	mac	0	2023-12-01	16:28:53	1	1	1	experiment	2	feedback	160	660	700	210	1	38	37	37	7	attention	attention	attention	0	9			2	4	6820	133	0	122	0	0	2	212	19	171.144000000000005457	2377	182	150	182	0.440638005603253391	0.6999999999999999556	0	44.6363636363636331339	133	148	118	197	227	37	1	cloud	wind	Planet1A.png	Ship1A.png	Mushroom1A.png	fog0.png	0.0449999999999999983	0.633900000000000019
6.6.1	mac	0	2023-12-01	16:28:53	1	1	1	experiment	2	clock	380	540	273	210	1	38	38	38	8	attention	attention	attention	0	10			2	4	6820	133	0	122	0	0	2	212	39			182				0.6999999999999999556	0	44.6363636363636331339	133	148	118	197	227	38	1	cloud	wind	Planet1A.png	Ship1A.png	Mushroom1A.png	fog0.png	0.0449999999999999983	0.633900000000000019
6.6.1	mac	0	2023-12-01	16:28:53	1	1	1	experiment	2	feedback	380	540	700	370	1	39	38	38	8	attention	attention	attention	0	10			2	4	6820	133	0	122	0	0	2	212	39	250.0560000000000115961	3473	171	150	171	0.2038894377657886336	0.6999999999999999556	0	44.6363636363636331339	133	148	118	197	227	38	1	cloud	wind	Planet1A.png	Ship1A.png	Mushroom1A.png	fog0.png	0.0449999999999999983	0.678900000000000059
6.6.1	mac	0	2023-12-01	16:28:53	1	1	1	experiment	2	clock	190	600	271	370	1	39	39	39	9	attention	attention	attention	0	11			2	4	6820	133	0	122	0	0	2	212	75			171				0.6999999999999999556	0	44.6363636363636331339	133	148	118	197	227	39	1	cloud	wind	Planet1A.png	Ship1A.png	Mushroom1A.png	fog0.png	0.0449999999999999983	0.678900000000000059
6.6.1	mac	0	2023-12-01	16:28:53	1	1	1	experiment	2	feedback	190	600	700	380	1	40	39	39	9	attention	attention	attention	0	11			2	4	6820	133	0	122	0	0	2	212	75	19.5120000000000004547	271	1	10	1	0.0004023169168276519	0.6999999999999999556	0	44.6363636363636331339	133	148	118	197	227	39	1	cloud	wind	Planet1A.png	Ship1A.png	Mushroom1A.png	fog0.png	0.0029999999999999996	0.6819000000000000616
6.6.1	mac	0	2023-12-01	16:28:53	1	1	1	experiment	2	clock	270	500	260	380	1	40	40	40	10	attention	attention	attention	0	12			2	4	6820	133	0	122	0	0	2	212	61			1				0.6999999999999999556	0	75.3181818181818130142	133	148	118	197	227	40	1	cloud	wind	Planet1A.png	Ship1A.png	Mushroom1A.png	fog0.png	0.0029999999999999996	0.6819000000000000616
6.6.1	mac	0	2023-12-01	16:28:53	1	1	1	experiment	2	feedback	270	500	700	350	1	41	40	40	10	attention	attention	attention	0	12			2	4	6820	133	0	122	0	0	2	212	61	328.3199999999999931788	4560	43	43	43	0.6770923630513931979	0.6999999999999999556	0	75.3181818181818130142	133	148	118	197	227	40	1	cloud	wind	Planet1A.png	Ship1A.png	Mushroom1A.png	fog0.png	0.0128999999999999983	0.6948000000000000842
6.6.1	mac	0	2023-12-01	16:28:53	1	1	1	experiment	2	clock	200	530	399	350	1	41	41	41	1	no erasure	no erasure	attention	0	13			2	4	6820	133	0	122		0	2	212	67			43				0.6999999999999999556		90.6590909090909065071	133	148	118	197	227	41	1	cloud	wind	Planet1A.png	Ship1A.png	Mushroom1A.png	blank.png	0.0128999999999999983	0.6948000000000000842
6.6.1	mac	0	2023-12-01	16:28:53	1	1	1	experiment	2	feedback	200	530	700	410	1	42	41	41	1	no erasure	no erasure	attention	0	13			2	4	6820	133	0	122		0	2	212	67	359.9279999999999972715	4999	9	10	9	0.2298332204180381366	0.6999999999999999556		90.6590909090909065071	133	148	118	197	227	41	1	cloud	wind	Planet1A.png	Ship1A.png	Mushroom1A.png	blank.png	0.0029999999999999996	0.6978000000000000869
6.6.1	mac	0	2023-12-01	16:28:53	1	1	1	experiment	2	clock	400	670	210	410	1	42	42	42	2	no erasure	no erasure	no erasure	0	14			2	4	6820	133	0	122		0	2	212	3			9				0.6999999999999999556		93.8295454545454532536	133	148	118	197	227	42	1	cloud	wind	Planet1A.png	Ship1A.png	Mushroom1A.png	blank.png	0.0029999999999999996	0.6978000000000000869
6.6.1	mac	0	2023-12-01	16:28:53	1	1	1	experiment	2	feedback	400	670	700	580	1	43	42	42	2	no erasure	no erasure	no erasure	0	14			2	4	6820	133	0	122		0	2	212	3	115.9200000000000017053	1610	94	10	10	0.7143371281480270785	0.6999999999999999556		93.8295454545454532536	133	148	118	197	227	42	1	cloud	wind	Planet1A.png	Ship1A.png	Mushroom1A.png	blank.png	0.0029999999999999996	0.7008000000000000895
6.6.1	mac	0	2023-12-01	16:28:53	1	1	1	experiment	2	clock	120	510	345	580	1	43	43	43	3	no erasure	no erasure	no erasure	0	15			2	4	6820	133	0	122		0	2	212	99			94				0.6999999999999999556		91.9147727272727195214	133	148	118	197	227	43	1	cloud	wind	Planet1A.png	Ship1A.png	Mushroom1A.png	blank.png	0.0029999999999999996	0.7008000000000000895
6.6.1	mac	0	2023-12-01	16:28:53	1	1	1	experiment	2	feedback	120	510	700	410	1	44	43	43	3	no erasure	no erasure	no erasure	0	15			2	4	6820	133	0	122		0	2	212	99	111.2399999999999948841	1545	80	10	10	0.7308366693860937069	0.6999999999999999556		91.9147727272727195214	133	148	118	197	227	43	1	cloud	wind	Planet1A.png	Ship1A.png	Mushroom1A.png	blank.png	0.0029999999999999996	0.7038000000000000922
6.6.1	mac	0	2023-12-01	16:28:53	1	1	1	experiment	2	clock	220	530	292	410	1	44	44	44	4	no erasure	no erasure	no erasure	0	16			2	4	6820	133	0	122		0	2	212	51			80				0.6999999999999999556		86.4573863636363597607	133	148	118	197	227	44	1	cloud	wind	Planet1A.png	Ship1A.png	Mushroom1A.png	blank.png	0.0029999999999999996	0.7038000000000000922
6.6.1	mac	0	2023-12-01	16:28:53	1	1	1	experiment	2	feedback	220	530	700	340	1	45	44	44	4	no erasure	no erasure	no erasure	0	16			2	4	6820	133	0	122		0	2	212	51	294.6240000000000236469	4092	72	72	72	0.1079120280006695548	0.6999999999999999556		86.4573863636363597607	133	148	118	197	227	44	1	cloud	wind	Planet1A.png	Ship1A.png	Mushroom1A.png	blank.png	0.0215999999999999977	0.7254000000000000448
6.6.1	mac	0	2023-12-01	16:28:53	1	1	1	experiment	2	clock	230	630	241	340	1	45	45	45	5	no erasure	no erasure	no erasure	0				2	4	6820	133	0	122		0	2	212	99			72				0.6999999999999999556		86.4573863636363597607	133	148	118	197	227	45	1	cloud	wind	Planet1A.png	Ship1A.png	Mushroom1A.png	blank.png	0.0215999999999999977	0.7254000000000000448
6.6.1	mac	0	2023-12-01	16:28:53	1	1	1	experiment	2	feedback	230	630	700	550	1	46	45	45	5	no erasure	no erasure	no erasure	0				2	4	6820	133	0	122		0	2	212	99	103.7519999999999953388	1441	58	10	10	0.779494911380925859	0.6999999999999999556		86.4573863636363597607	133	148	118	197	227	45	1	cloud	wind	Planet1A.png	Ship1A.png	Mushroom1A.png	blank.png	0.0029999999999999996	0.7284000000000000474
6.6.1	mac	0	2023-12-01	16:28:53	1	1	1	experiment	2	clock	160	600	307	550	1	46	46	46	6	no erasure	no erasure	no erasure	0				2	4	6820	133	0	122		0	2	212	25			58				0.6999999999999999556		86.4573863636363597607	133	148	118	197	227	46	1	cloud	wind	Planet1A.png	Ship1A.png	Mushroom1A.png	blank.png	0.0029999999999999996	0.7284000000000000474
6.6.1	mac	0	2023-12-01	16:28:53	1	1	1	experiment	2	feedback	160	600	700	490	1	47	46	46	6	no erasure	no erasure	no erasure	0				2	4	6820	133	0	122		0	2	212	25	202.104000000000013415	2807	119	119	119	0.129302254209598122	0.6999999999999999556		86.4573863636363597607	133	148	118	197	227	46	1	cloud	wind	Planet1A.png	Ship1A.png	Mushroom1A.png	blank.png	0.0356999999999999956	0.7641000000000000014
6.6.1	mac	0	2023-12-01	16:28:53	1	1	1	experiment	2	clock	290	670	233	490	1	47	47	47	7	no erasure	no erasure	no erasure	0				2	4	6820	133	0	122		0	2	212	68			119				0.6999999999999999556		86.4573863636363597607	133	148	118	197	227	47	1	cloud	wind	Planet1A.png	Ship1A.png	Mushroom1A.png	blank.png	0.0356999999999999956	0.7641000000000000014
6.6.1	mac	0	2023-12-01	16:28:53	1	1	1	experiment	2	feedback	290	670	700	330	1	48	47	47	7	no erasure	no erasure	no erasure	0				2	4	6820	133	0	122		0	2	212	68	351.5760000000000218279	4883	7	10	10	0.9535905425328738971	0.6999999999999999556		86.4573863636363597607	133	148	118	197	227	47	1	cloud	wind	Planet1A.png	Ship1A.png	Mushroom1A.png	blank.png	0.0029999999999999996	0.7671000000000000041
6.6.1	mac	0	2023-12-01	16:28:53	1	1	1	experiment	2	clock	170	620	254	330	1	48	48	48	8	no erasure	no erasure	no erasure	0				2	4	6820	133	0	122		0	2	212	59			7				0.6999999999999999556		86.4573863636363597607	133	148	118	197	227	48	1	cloud	wind	Planet1A.png	Ship1A.png	Mushroom1A.png	blank.png	0.0029999999999999996	0.7671000000000000041
6.6.1	mac	0	2023-12-01	16:28:53	1	1	1	experiment	2	feedback	170	620	700	500	1	49	48	48	8	no erasure	no erasure	no erasure	0				2	4	6820	133	0	122		0	2	212	59	320.6879999999999881766	4454	22	10	10	0.98801523656305279	0.6999999999999999556		86.4573863636363597607	133	148	118	197	227	48	1	cloud	wind	Planet1A.png	Ship1A.png	Mushroom1A.png	blank.png	0.0029999999999999996	0.7701000000000000068
6.6.1	mac	0	2023-12-01	16:28:53	1	1	1	experiment	2	clock	490	500	308	500	1	49	49	49	9	no erasure	no erasure	no erasure	0				2	4	6820	133	0	122		0	2	212	76			22				0.6999999999999999556		86.4573863636363597607	133	148	118	197	227	49	1	cloud	wind	Planet1A.png	Ship1A.png	Mushroom1A.png	blank.png	0.0029999999999999996	0.7701000000000000068
6.6.1	mac	0	2023-12-01	16:28:53	1	1	1	experiment	2	feedback	490	500	700	370	1	50	49	49	9	no erasure	no erasure	no erasure	0				2	4	6820	133	0	122		0	2	212	76	25.775999999999999801	358	1	10	1	0.4405782573019569326	0.6999999999999999556		86.4573863636363597607	133	148	118	197	227	49	1	cloud	wind	Planet1A.png	Ship1A.png	Mushroom1A.png	blank.png	0.0029999999999999996	0.7731000000000000094
6.6.1	mac	0	2023-12-01	16:28:53	1	1	1	experiment	2	clock	240	560	371	370	1	50	50	50	10	no erasure	no erasure	no erasure	0				2	4	6820	133	0	122		0	2	212	99			1				0.6999999999999999556		86.4573863636363597607	133	148	118	197	227	50	1	cloud	wind	Planet1A.png	Ship1A.png	Mushroom1A.png	blank.png	0.0029999999999999996	0.7731000000000000094
6.6.1	mac	0	2023-12-01	16:28:53	1	1	1	experiment	2	feedback	240	560	700	440	1	51	50	50	10	no erasure	no erasure	no erasure	0				2	4	6820	133	0	122		0	2	212	99	113.1119999999999947704	1571	28	28	28	0.6401867607236343405	0.6999999999999999556		86.4573863636363597607	133	148	118	197	227	50	1	cloud	wind	Planet1A.png	Ship1A.png	Mushroom1A.png	blank.png	0.0083999999999999995	0.7814999999999999725
6.6.1	mac	0	2023-12-01	16:28:53	1	1	1	experiment	2	clock	440	660	2609	440	1	51	51	51	1	erasure	erasure	no erasure	1	1			2	5	6820	183	1	122	0	0	2	273	99			28				0.6999999999999999556	0	1	183	198	168	258	288	51	2	cloud	wind	Planet1A.png	Ship1A.png	Mushroom1A.png	wind0.png	0.0083999999999999995	0.7814999999999999725
6.6.1	mac	0	2023-12-01	16:28:53	1	1	1	experiment	2	feedback	440	660	700	350	1	52	51	51	1	erasure	erasure	no erasure	0	1			2	5	6820	183	1	122	1	0	2	273	99	274.2479999999999904503	3809	24	24	24	0.6649190908449047477	0.6999999999999999556	1	1	183	198	168	258	288	51	2	cloud	wind	Planet1A.png	Ship1A.png	Mushroom1A.png	wind0.png	0.0071999999999999998	0.7886999999999999567
6.6.1	mac	0	2023-12-01	16:28:53	1	1	1	experiment	2	clock	340	580	2773	350	1	52	52	52	2	erasure	erasure	erasure	0	2			2	5	6820	183	1	122	1	0	2	273	96			24				0.6999999999999999556	1	1	183	198	168	258	288	52	2	cloud	wind	Planet1A.png	Ship1A.png	Mushroom1A.png	wind0.png	0.0071999999999999998	0.7886999999999999567
6.6.1	mac	0	2023-12-01	16:28:53	1	1	1	experiment	2	feedback	340	580	700	310	1	53	52	52	2	erasure	erasure	erasure	0	2			2	5	6820	183	1	122	2	0	2	273	96	275.2559999999999718057	3823	13	13	13	0.6426022685232112286	0.6999999999999999556	1	1	183	198	168	258	288	52	2	cloud	wind	Planet1A.png	Ship1A.png	Mushroom1A.png	wind0.png	0.0038999999999999998	0.7925999999999999712
6.6.1	mac	0	2023-12-01	16:28:53	1	1	1	experiment	2	clock	190	570	301	310	1	53	53	53	3	erasure	no erasure	erasure	0	3			2	5	6820	183	0	122		1	1	273	80			13				0.6999999999999999556		1	183	198	168	258	288	53	2	cloud	wind	Planet1A.png	Ship1A.png	Mushroom1A.png	blank.png	0.0038999999999999998	0.7925999999999999712
6.6.1	mac	0	2023-12-01	16:28:53	1	1	1	experiment	2	feedback	190	570	700	250	1	54	53	53	3	erasure	no erasure	erasure	0	3			2	5	6820	183	0	122		1	1	273	80	39.6719999999999970441	551	28	28	28	0.4566588980277671572	0.6999999999999999556		1	183	198	168	258	288	53	2	cloud	wind	Planet1A.png	Ship1A.png	Mushroom1A.png	blank.png	0.0083999999999999995	0.8009999999999999343
6.6.1	mac	0	2023-12-01	16:28:53	1	1	1	experiment	2	clock	250	520	319	250	1	54	54	54	4	erasure	no erasure	erasure	0	4			2	5	6820	183	0	122		1	0	273	45			28				0.6999999999999999556		1	183	198	168	258	288	54	2	cloud	wind	Planet1A.png	Ship1A.png	Mushroom1A.png	blank.png	0.0083999999999999995	0.8009999999999999343
6.6.1	mac	0	2023-12-01	16:28:53	1	1	1	experiment	2	feedback	250	520	700	540	1	55	54	54	4	erasure	no erasure	erasure	0	4			2	5	6820	183	0	122		1	0	273	45	274.9680000000000177351	3819	27	27	27	0.6510571778405125354	0.6999999999999999556		1	183	198	168	258	288	54	2	cloud	wind	Planet1A.png	Ship1A.png	Mushroom1A.png	blank.png	0.0080999999999999996	0.8090999999999999304
6.6.1	mac	0	2023-12-01	16:28:53	1	1	1	experiment	2	clock	150	680	1509	540	1	55	55	55	5	erasure	erasure	erasure	1	1			2	6	6820	280	1	122	0	0	2	10	46			27				0.6999999999999999556	0	65	280	295	265	355	25	55	2	cloud	wind	Planet1A.png	Ship1A.png	Mushroom1A.png	wind0.png	0.0080999999999999996	0.8090999999999999304
6.6.1	mac	0	2023-12-01	16:28:53	1	1	1	experiment	2	feedback	150	680	700	270	1	56	55	55	5	erasure	erasure	erasure	0	1			2	6	6820	280	1	122	1	0	2	10	46	4.2480000000000002203	59	57	10	10	0.8186278333465167867	0.6999999999999999556	1	65	280	295	265	355	25	55	2	cloud	wind	Planet1A.png	Ship1A.png	Mushroom1A.png	wind0.png	0.0029999999999999996	0.812099999999999933
6.6.1	mac	0	2023-12-01	16:28:53	1	1	1	experiment	2	clock	350	550	3400	270	1	56	56	56	6	erasure	erasure	erasure	0	2			2	6	6820	280	1	122	1	0	2	10	9			57				0.6999999999999999556	1	65	280	295	265	355	25	56	2	cloud	wind	Planet1A.png	Ship1A.png	Mushroom1A.png	wind0.png	0.0029999999999999996	0.812099999999999933
6.6.1	mac	0	2023-12-01	16:28:53	1	1	1	experiment	2	feedback	350	550	700	430	1	57	56	56	6	erasure	erasure	erasure	0	2			2	6	6820	280	1	122	2	0	2	10	9	7.2000000000000001776	100	68	10	10	0.8940818067393455637	0.6999999999999999556	1	65	280	295	265	355	25	56	2	cloud	wind	Planet1A.png	Ship1A.png	Mushroom1A.png	wind0.png	0.0029999999999999996	0.8150999999999999357
6.6.1	mac	0	2023-12-01	16:28:53	1	1	1	experiment	2	clock	360	700	208	430	1	57	57	57	7	erasure	no erasure	erasure	0	3			2	6	6820	280	0	122		1	1	10	82			68				0.6999999999999999556		92.4285714285714163907	280	295	265	355	25	57	2	cloud	wind	Planet1A.png	Ship1A.png	Mushroom1A.png	blank.png	0.0029999999999999996	0.8150999999999999357
6.6.1	mac	0	2023-12-01	16:28:53	1	1	1	experiment	2	feedback	360	700	700	390	1	58	57	57	7	erasure	no erasure	erasure	0	3			2	6	6820	280	0	122		1	1	10	82	40.1760000000000019327	558	70	70	70	0.0521660766220106917	0.6999999999999999556		92.4285714285714163907	280	295	265	355	25	57	2	cloud	wind	Planet1A.png	Ship1A.png	Mushroom1A.png	blank.png	0.0209999999999999978	0.8360999999999999543
6.6.1	mac	0	2023-12-01	16:28:53	1	1	1	experiment	2	clock	310	540	371	390	1	58	58	58	8	erasure	no erasure	erasure	0	4			2	6	6820	280	0	122		1	0	10	2			70				0.6999999999999999556		106.1428571428571387969	280	295	265	355	25	58	2	cloud	wind	Planet1A.png	Ship1A.png	Mushroom1A.png	blank.png	0.0209999999999999978	0.8360999999999999543
6.6.1	mac	0	2023-12-01	16:28:53	1	1	1	experiment	2	feedback	310	540	700	380	1	59	58	58	8	erasure	no erasure	erasure	0	4			2	6	6820	280	0	122		1	0	10	2	123.9120000000000061391	1721	17	10	10	0.8570134306459252782	0.6999999999999999556		106.1428571428571387969	280	295	265	355	25	58	2	cloud	wind	Planet1A.png	Ship1A.png	Mushroom1A.png	blank.png	0.0029999999999999996	0.839099999999999957
6.6.1	mac	0	2023-12-01	16:28:53	1	1	1	experiment	2	clock	130	650	3930	380	1	59	59	59	9	erasure	erasure	erasure	1	1			2	7	6820	314	1	122	0	0	2	44	8			17				0.6999999999999999556	0	116	314	329	299	29	59	59	2	cloud	wind	Planet1A.png	Ship1A.png	Mushroom1A.png	wind0.png	0.0029999999999999996	0.839099999999999957
6.6.1	mac	0	2023-12-01	16:28:53	1	1	1	experiment	2	feedback	130	650	700	530	1	60	59	59	9	erasure	erasure	erasure	0	1			2	7	6820	314	1	122	1	0	2	44	8	41.7599999999999980105	580	88	88	88	0.2805965191872316633	0.6999999999999999556	1	116	314	329	299	29	59	59	2	cloud	wind	Planet1A.png	Ship1A.png	Mushroom1A.png	wind0.png	0.0263999999999999964	0.8654999999999999361
6.6.1	mac	0	2023-12-01	16:28:53	1	1	1	experiment	2	clock	500	590	2713	530	1	60	60	60	10	erasure	erasure	erasure	0	2			2	7	6820	314	1	122	1	0	2	44	32			88				0.6999999999999999556	1	116	314	329	299	29	59	60	2	cloud	wind	Planet1A.png	Ship1A.png	Mushroom1A.png	wind0.png	0.0263999999999999964	0.8654999999999999361
6.6.1	mac	0	2023-12-01	16:28:53	1	1	1	experiment	2	feedback	500	590	700	300	1	61	60	60	10	erasure	erasure	erasure	0	2			2	7	6820	314	1	122	2	0	2	44	32	40.5360000000000013642	563	100	100	100	0.2793633738251783405	0.6999999999999999556	1	116	314	329	299	29	59	60	2	cloud	wind	Planet1A.png	Ship1A.png	Mushroom1A.png	wind0.png	0.0299999999999999989	0.8954999999999999627
6.6.1	mac	0	2023-12-01	16:28:53	1	1	1	experiment	2	clock	430	610	356	300	1	61	61	61	1	no erasure	no erasure	erasure	0	3			2	7	6820	314	0	122		0	2	44	42			100				0.6999999999999999556		142.5384615384615472067	314	329	299	29	59	61	2	cloud	wind	Planet1A.png	Ship1A.png	Mushroom1A.png	blank.png	0.0299999999999999989	0.8954999999999999627
6.6.1	mac	0	2023-12-01	16:28:53	1	1	1	experiment	2	feedback	430	610	700	220	1	62	61	61	1	no erasure	no erasure	erasure	0	3			2	7	6820	314	0	122		0	2	44	42	266.8319999999999936335	3706	65	65	65	0.5294232651426976632	0.6999999999999999556		142.5384615384615472067	314	329	299	29	59	61	2	cloud	wind	Planet1A.png	Ship1A.png	Mushroom1A.png	blank.png	0.0195	0.9149999999999999245
6.6.1	mac	0	2023-12-01	16:28:53	1	1	1	experiment	2	clock	270	640	265	220	1	62	62	62	2	no erasure	no erasure	no erasure	0	4			2	7	6820	314	0	122		0	2	44	14			65				0.6999999999999999556		155.80769230769232081	314	329	299	29	59	62	2	cloud	wind	Planet1A.png	Ship1A.png	Mushroom1A.png	blank.png	0.0195	0.9149999999999999245
6.6.1	mac	0	2023-12-01	16:28:53	1	1	1	experiment	2	feedback	270	640	700	460	1	63	62	62	2	no erasure	no erasure	no erasure	0	4			2	7	6820	314	0	122		0	2	44	14	159.4799999999999897682	2215	3	10	3	0.4315826612132561135	0.6999999999999999556		155.80769230769232081	314	329	299	29	59	62	2	cloud	wind	Planet1A.png	Ship1A.png	Mushroom1A.png	blank.png	0.0029999999999999996	0.9179999999999999272
6.6.1	mac	0	2023-12-01	16:28:53	1	1	1	experiment	2	clock	210	690	143	460	1	63	63	63	3	no erasure	no erasure	no erasure	0	5			2	7	6820	314	0	122		0	2	44	59			3				0.6999999999999999556		169.0769230769230944134	314	329	299	29	59	63	2	cloud	wind	Planet1A.png	Ship1A.png	Mushroom1A.png	blank.png	0.0029999999999999996	0.9179999999999999272
6.6.1	mac	0	2023-12-01	16:28:53	1	1	1	experiment	2	feedback	210	690	700	480	1	64	63	63	3	no erasure	no erasure	no erasure	0	5			2	7	6820	314	0	122		0	2	44	59	312.6960000000000263753	4343	167.9254586894587362167	150	167.9254586894587362167	0.4600985796330726019	0.6999999999999999556		169.0769230769230944134	314	329	299	29	59	63	2	cloud	wind	Planet1A.png	Ship1A.png	Mushroom1A.png	blank.png	0.0449999999999999983	0.9629999999999999671
6.6.1	mac	0	2023-12-01	16:28:53	1	1	1	experiment	2	clock	480	570	306	480	1	64	64	64	4	no erasure	no erasure	no erasure	0	6			2	7	6820	314	0	122		0	2	44	22			167.9254586894587362167				0.6999999999999999556		182.3461538461538680167	314	329	299	29	59	64	2	cloud	wind	Planet1A.png	Ship1A.png	Mushroom1A.png	blank.png	0.0449999999999999983	0.9629999999999999671
6.6.1	mac	0	2023-12-01	16:28:53	1	1	1	experiment	2	feedback	480	570	700	280	1	65	64	64	4	no erasure	no erasure	no erasure	0	6			2	7	6820	314	0	122		0	2	44	22	191.2319999999999993179	2656	4	10	4	0.1718711471585256945	0.6999999999999999556		182.3461538461538680167	314	329	299	29	59	64	2	cloud	wind	Planet1A.png	Ship1A.png	Mushroom1A.png	blank.png	0.0029999999999999996	0.9659999999999999698
6.6.1	mac	0	2023-12-01	16:28:53	1	1	1	experiment	2	clock	260	540	269	280	1	65	65	65	5	no erasure	no erasure	no erasure	0	7			2	7	6820	314	0	122		0	2	44	40			4				0.6999999999999999556		195.61538461538464162	314	329	299	29	59	65	2	cloud	wind	Planet1A.png	Ship1A.png	Mushroom1A.png	blank.png	0.0029999999999999996	0.9659999999999999698
6.6.1	mac	0	2023-12-01	16:28:53	1	1	1	experiment	2	feedback	260	540	700	570	1	66	65	65	5	no erasure	no erasure	no erasure	0	7			2	7	6820	314	0	122		0	2	44	40	253.3679999999999949978	3519	69	69	69	0.1572425982815312817	0.6999999999999999556		195.61538461538464162	314	329	299	29	59	65	2	cloud	wind	Planet1A.png	Ship1A.png	Mushroom1A.png	blank.png	0.0206999999999999997	0.9867000000000000215
6.6.1	mac	0	2023-12-01	16:28:53	1	1	1	experiment	2	clock	180	660	325	570	1	66	66	66	6	no erasure	no erasure	no erasure	0	8			2	7	6820	314	0	122		0	2	44	29			69				0.6999999999999999556		208.8846153846153868017	314	329	299	29	59	66	2	cloud	wind	Planet1A.png	Ship1A.png	Mushroom1A.png	blank.png	0.0206999999999999997	0.9867000000000000215
6.6.1	mac	0	2023-12-01	16:28:53	1	1	1	experiment	2	feedback	180	660	700	320	1	67	66	66	6	no erasure	no erasure	no erasure	0	8			2	7	6820	314	0	122		0	2	44	29	217.8000000000000113687	3025	26	26	26	0.6489134313652555885	0.6999999999999999556		208.8846153846153868017	314	329	299	29	59	66	2	cloud	wind	Planet1A.png	Ship1A.png	Mushroom1A.png	blank.png	0.0077999999999999996	0.9945000000000000506
6.6.1	mac	0	2023-12-01	16:28:53	1	1	1	experiment	2	clock	410	640	252	320	1	67	67	67	7	no erasure	no erasure	no erasure	0	9			2	7	6820	314	0	122		0	2	44	70			26				0.6999999999999999556		222.153846153846160405	314	329	299	29	59	67	2	cloud	wind	Planet1A.png	Ship1A.png	Mushroom1A.png	blank.png	0.0077999999999999996	0.9945000000000000506
6.6.1	mac	0	2023-12-01	16:28:53	1	1	1	experiment	2	feedback	410	640	700	260	1	68	67	67	7	no erasure	no erasure	no erasure	0	9			2	7	6820	314	0	122		0	2	44	70	0.1439999999999999891	2	201	150	201	0.4566699030009726545	0.6999999999999999556		222.153846153846160405	314	329	299	29	59	67	2	cloud	wind	Planet1A.png	Ship1A.png	Mushroom1A.png	blank.png	0.0449999999999999983	1.0395000000000000906
6.6.1	mac	0	2023-12-01	16:28:53	1	1	1	experiment	2	clock	450	590	367	260	1	68	68	68	8	no erasure	no erasure	no erasure	0	10			2	7	6820	314	0	122		0	2	44	10			201				0.6999999999999999556		222.153846153846160405	314	329	299	29	59	68	2	cloud	wind	Planet1A.png	Ship1A.png	Mushroom1A.png	blank.png	0.0449999999999999983	1.0395000000000000906
6.6.1	mac	0	2023-12-01	16:28:53	1	1	1	experiment	2	feedback	450	590	700	240	1	69	68	68	8	no erasure	no erasure	no erasure	0	10			2	7	6820	314	0	122		0	2	44	10	152.4240000000000065938	2117	8	10	8	0.3771832390635235233	0.6999999999999999556		222.153846153846160405	314	329	299	29	59	68	2	cloud	wind	Planet1A.png	Ship1A.png	Mushroom1A.png	blank.png	0.0029999999999999996	1.0424999999999999822
6.6.1	mac	0	2023-12-01	16:28:53	1	1	1	experiment	2	clock	370	500	351	240	1	69	69	69	9	no erasure	no erasure	no erasure	0	11			2	7	6820	314	0	122		0	2	44	68			8				0.6999999999999999556		222.153846153846160405	314	329	299	29	59	69	2	cloud	wind	Planet1A.png	Ship1A.png	Mushroom1A.png	blank.png	0.0029999999999999996	1.0424999999999999822
6.6.1	mac	0	2023-12-01	16:28:53	1	1	1	experiment	2	feedback	370	500	700	200	1	70	69	69	9	no erasure	no erasure	no erasure	0	11			2	7	6820	314	0	122		0	2	44	68	0.0719999999999999946	1	201	150	201	0.2148592882358607015	0.6999999999999999556		222.153846153846160405	314	329	299	29	59	69	2	cloud	wind	Planet1A.png	Ship1A.png	Mushroom1A.png	blank.png	0.0449999999999999983	1.0874999999999999112
6.6.1	mac	0	2023-12-01	16:28:53	1	1	1	experiment	2	clock	460	680	228	200	1	70	70	70	10	no erasure	no erasure	no erasure	0	12			2	7	6820	314	0	122		0	2	44	5			201				0.6999999999999999556		188.0769230769230944134	314	329	299	29	59	70	2	cloud	wind	Planet1A.png	Ship1A.png	Mushroom1A.png	blank.png	0.0449999999999999983	1.0874999999999999112
6.6.1	mac	0	2023-12-01	16:28:53	1	1	1	experiment	2	feedback	460	680	700	230	1	71	70	70	10	no erasure	no erasure	no erasure	0	12			2	7	6820	314	0	122		0	2	44	5	124.4159999999999968168	1728	38	10	10	0.9119266124702819498	0.6999999999999999556		188.0769230769230944134	314	329	299	29	59	70	2	cloud	wind	Planet1A.png	Ship1A.png	Mushroom1A.png	blank.png	0.0029999999999999996	1.0904999999999998028
6.6.1	mac	0	2023-12-01	16:28:53	1	1	1	experiment	2	clock	390	650	321	230	1	71	71	71	1	attention	attention	no erasure	0	13			3	7	6820	314	0	173	0	0	2	263	88			38				0.6999999999999999556	0	171.0384615384615472067	314	329	299	248	278	71	2	cloud	wind	Planet1A.png	Ship1A.png	Mushroom1A.png	fog0.png	0.0029999999999999996	1.0904999999999998028
6.6.1	mac	0	2023-12-01	16:28:53	1	1	1	experiment	2	feedback	390	650	700	400	1	72	71	71	1	attention	attention	no erasure	0	13			3	7	6820	314	0	173	0	0	2	263	88	69.9120000000000061391	971	127	127	127	0.6711556638291001908	0.6999999999999999556	0	171.0384615384615472067	314	329	299	248	278	71	2	cloud	wind	Planet1A.png	Ship1A.png	Mushroom1A.png	fog0.png	0.038099999999999995	1.1285999999999998256
6.6.1	mac	0	2023-12-01	16:28:53	1	1	1	experiment	2	clock	280	510	358	400	1	72	72	72	2	attention	attention	attention	0	14			3	7	6820	314	0	173	0	0	2	263	17			127				0.6999999999999999556	0	162.5192307692307736033	314	329	299	248	278	72	2	cloud	wind	Planet1A.png	Ship1A.png	Mushroom1A.png	fog0.png	0.038099999999999995	1.1285999999999998256
6.6.1	mac	0	2023-12-01	16:28:53	1	1	1	experiment	2	feedback	280	510	700	360	1	73	72	72	2	attention	attention	attention	0	14			3	7	6820	314	0	173	0	0	2	263	17	176.9759999999999990905	2458	1	10	10	0.9068980910598528622	0.6999999999999999556	0	162.5192307692307736033	314	329	299	248	278	72	2	cloud	wind	Planet1A.png	Ship1A.png	Mushroom1A.png	fog0.png	0.0029999999999999996	1.1315999999999997172
6.6.1	mac	0	2023-12-01	16:28:53	1	1	1	experiment	2	clock	100	520	363	360	1	73	73	73	3	attention	attention	attention	0	15			3	7	6820	314	0	173	0	0	2	263	35			1				0.6999999999999999556	0	158.7596153846153868017	314	329	299	248	278	73	2	cloud	wind	Planet1A.png	Ship1A.png	Mushroom1A.png	fog0.png	0.0029999999999999996	1.1315999999999997172
6.6.1	mac	0	2023-12-01	16:28:53	1	1	1	experiment	2	feedback	100	520	700	560	1	74	73	73	3	attention	attention	attention	0	15			3	7	6820	314	0	173	0	0	2	263	35	242.1359999999999956799	3363	60	60	60	0.4879828536622186075	0.6999999999999999556	0	158.7596153846153868017	314	329	299	248	278	73	2	cloud	wind	Planet1A.png	Ship1A.png	Mushroom1A.png	fog0.png	0.0179999999999999986	1.1495999999999997332
6.6.1	mac	0	2023-12-01	16:28:53	1	1	1	experiment	2	clock	320	580	275	560	1	74	74	74	4	attention	attention	attention	0	16			3	7	6820	314	0	173	0	0	2	263	47			60				0.6999999999999999556	0	155.37980769230767919	314	329	299	248	278	74	2	cloud	wind	Planet1A.png	Ship1A.png	Mushroom1A.png	fog0.png	0.0179999999999999986	1.1495999999999997332
6.6.1	mac	0	2023-12-01	16:28:53	1	1	1	experiment	2	feedback	320	580	700	510	1	75	74	74	4	attention	attention	attention	0	16			3	7	6820	314	0	173	0	0	2	263	47	279	3875	120	120	120	0.5926601194293843466	0.6999999999999999556	0	155.37980769230767919	314	329	299	248	278	74	2	cloud	wind	Planet1A.png	Ship1A.png	Mushroom1A.png	fog0.png	0.0359999999999999973	1.1855999999999997652
6.6.1	mac	0	2023-12-01	16:28:53	1	1	1	experiment	2	clock	200	610	244	510	1	75	75	75	5	attention	attention	attention	0				3	7	6820	314	0	173	0	0	2	263	84			120				0.6999999999999999556	0	155.37980769230767919	314	329	299	248	278	75	2	cloud	wind	Planet1A.png	Ship1A.png	Mushroom1A.png	fog0.png	0.0359999999999999973	1.1855999999999997652
6.6.1	mac	0	2023-12-01	16:28:53	1	1	1	experiment	2	feedback	200	610	700	590	1	76	75	75	5	attention	attention	attention	0				3	7	6820	314	0	173	0	0	2	263	84	49.9680000000000035243	694	159	150	159	0.3014810449214375132	0.6999999999999999556	0	155.37980769230767919	314	329	299	248	278	75	2	cloud	wind	Planet1A.png	Ship1A.png	Mushroom1A.png	fog0.png	0.0449999999999999983	1.2305999999999996941
6.6.1	mac	0	2023-12-01	16:28:53	1	1	1	experiment	2	clock	380	550	300	590	1	76	76	76	6	attention	attention	attention	0				3	7	6820	314	0	173	0	0	2	263	15			159				0.6999999999999999556	0	155.37980769230767919	314	329	299	248	278	76	2	cloud	wind	Planet1A.png	Ship1A.png	Mushroom1A.png	fog0.png	0.0449999999999999983	1.2305999999999996941
6.6.1	mac	0	2023-12-01	16:28:53	1	1	1	experiment	2	feedback	380	550	700	600	1	77	76	76	6	attention	attention	attention	0				3	7	6820	314	0	173	0	0	2	263	15	165.5999999999999943157	2300	2	10	2	0.1303393883002780806	0.6999999999999999556	0	155.37980769230767919	314	329	299	248	278	76	2	cloud	wind	Planet1A.png	Ship1A.png	Mushroom1A.png	fog0.png	0.0029999999999999996	1.2335999999999995858
6.6.1	mac	0	2023-12-01	16:28:53	1	1	1	experiment	2	clock	110	670	226	600	1	77	77	77	7	attention	attention	attention	0				3	7	6820	314	0	173	0	0	2	263	33			2				0.6999999999999999556	0	155.37980769230767919	314	329	299	248	278	77	2	cloud	wind	Planet1A.png	Ship1A.png	Mushroom1A.png	fog0.png	0.0029999999999999996	1.2335999999999995858
6.6.1	mac	0	2023-12-01	16:28:53	1	1	1	experiment	2	feedback	110	670	700	470	1	78	77	77	7	attention	attention	attention	0				3	7	6820	314	0	173	0	0	2	263	33	225.0720000000000027285	3126	31	31	31	0.015651181343861665	0.6999999999999999556	0	155.37980769230767919	314	329	299	248	278	77	2	cloud	wind	Planet1A.png	Ship1A.png	Mushroom1A.png	fog0.png	0.0092999999999999992	1.2428999999999996717
6.6.1	mac	0	2023-12-01	16:28:53	1	1	1	experiment	2	clock	330	690	161	470	1	78	78	78	8	attention	attention	attention	0				3	7	6820	314	0	173	0	0	2	263	66			31				0.6999999999999999556	0	155.37980769230767919	314	329	299	248	278	78	2	cloud	wind	Planet1A.png	Ship1A.png	Mushroom1A.png	fog0.png	0.0092999999999999992	1.2428999999999996717
6.6.1	mac	0	2023-12-01	16:28:53	1	1	1	experiment	2	feedback	330	690	700	420	1	79	78	78	8	attention	attention	attention	0				3	7	6820	314	0	173	0	0	2	263	66	339.192000000000007276	4711	164	150	164	0.4348743330768482518	0.6999999999999999556	0	155.37980769230767919	314	329	299	248	278	78	2	cloud	wind	Planet1A.png	Ship1A.png	Mushroom1A.png	fog0.png	0.0449999999999999983	1.2878999999999996007
6.6.1	mac	0	2023-12-01	16:28:53	1	1	1	experiment	2	clock	300	620	246	420	1	79	79	79	9	attention	attention	attention	0				3	7	6820	314	0	173	0	0	2	263	75			164				0.6999999999999999556	0	155.37980769230767919	314	329	299	248	278	79	2	cloud	wind	Planet1A.png	Ship1A.png	Mushroom1A.png	fog0.png	0.0449999999999999983	1.2878999999999996007
6.6.1	mac	0	2023-12-01	16:28:53	1	1	1	experiment	2	feedback	300	620	700	210	1	80	79	79	9	attention	attention	attention	0				3	7	6820	314	0	173	0	0	2	263	75	17.7119999999999997442	246	150	150	150	0.3398863210668522927	0.6999999999999999556	0	155.37980769230767919	314	329	299	248	278	79	2	cloud	wind	Planet1A.png	Ship1A.png	Mushroom1A.png	fog0.png	0.0449999999999999983	1.3328999999999995296
6.6.1	mac	0	2023-12-01	16:28:53	1	1	1	experiment	2	clock	140	700	286	210	1	80	80	80	10	attention	attention	attention	0				3	7	6820	314	0	173	0	0	2	263	65			150				0.6999999999999999556	0	155.37980769230767919	314	329	299	248	278	80	2	cloud	wind	Planet1A.png	Ship1A.png	Mushroom1A.png	fog0.png	0.0449999999999999983	1.3328999999999995296
6.6.1	mac	0	2023-12-01	16:28:53	1	1	1	experiment	2	feedback	140	700	700	520	1	81	80	80	10	attention	attention	attention	0				3	7	6820	314	0	173	0	0	2	263	65	344.5919999999999845386	4786	143	10	10	0.7120505994446693077	0.6999999999999999556	0	155.37980769230767919	314	329	299	248	278	80	2	cloud	wind	Planet1A.png	Ship1A.png	Mushroom1A.png	fog0.png	0.0029999999999999996	1.3358999999999994213
6.6.1	mac	0	2023-12-01	16:28:53	1	1	1	experiment	2	clock	470	600	2390	520	1	81	81	81	1	erasure	erasure	attention	1	1			3	8	6820	168	1	173	0	0	2	258	99			143				0.6999999999999999556	0	1	168	183	153	243	273	81	3	cloud	wind	Planet1A.png	Ship1A.png	Mushroom1A.png	wind0.png	0.0029999999999999996	1.3358999999999994213
6.6.1	mac	0	2023-12-01	16:28:53	1	1	1	experiment	2	feedback	470	600	700	290	1	82	81	81	1	erasure	erasure	attention	0	1			3	8	6820	168	1	173	1	0	2	258	99	258.4800000000000181899	3590	58	58	58	0.4113698875092365315	0.6999999999999999556	1	1	168	183	153	243	273	81	3	cloud	wind	Planet1A.png	Ship1A.png	Mushroom1A.png	wind0.png	0.0173999999999999988	1.3532999999999995033
6.6.1	mac	0	2023-12-01	16:28:53	1	1	1	experiment	2	clock	420	630	4717	290	1	82	82	82	2	erasure	erasure	erasure	0	2			3	8	6820	168	1	173	1	0	2	258	52			58				0.6999999999999999556	1	1	168	183	153	243	273	82	3	cloud	wind	Planet1A.png	Ship1A.png	Mushroom1A.png	wind0.png	0.0173999999999999988	1.3532999999999995033
6.6.1	mac	0	2023-12-01	16:28:53	1	1	1	experiment	2	feedback	420	630	700	450	1	83	82	82	2	erasure	erasure	erasure	0	2			3	8	6820	168	1	173	2	0	2	258	52	256.8240000000000122782	3567	51	51	51	0.0982368779597424108	0.6999999999999999556	1	1	168	183	153	243	273	82	3	cloud	wind	Planet1A.png	Ship1A.png	Mushroom1A.png	wind0.png	0.0152999999999999994	1.3685999999999995946
6.6.1	mac	0	2023-12-01	16:28:53	1	1	1	experiment	2	clock	210	560	375	450	1	83	83	83	3	erasure	no erasure	erasure	0	3			3	8	6820	168	0	173		1	1	258	6			51				0.6999999999999999556		1	168	183	153	243	273	83	3	cloud	wind	Planet1A.png	Ship1A.png	Mushroom1A.png	blank.png	0.0152999999999999994	1.3685999999999995946
6.6.1	mac	0	2023-12-01	16:28:53	1	1	1	experiment	2	feedback	210	560	700	320	1	84	83	83	3	erasure	no erasure	erasure	0	3			3	8	6820	168	0	173		1	1	258	6	138.5999999999999943157	1925	11	11	11	0.3610605891703303483	0.6999999999999999556		1	168	183	153	243	273	83	3	cloud	wind	Planet1A.png	Ship1A.png	Mushroom1A.png	blank.png	0.0032999999999999995	1.3718999999999996753
6.6.1	mac	0	2023-12-01	16:28:53	1	1	1	experiment	2	clock	310	530	249	320	1	84	84	84	4	erasure	no erasure	erasure	0	4			3	8	6820	168	0	173		1	0	258	10			11				0.6999999999999999556		1	168	183	153	243	273	84	3	cloud	wind	Planet1A.png	Ship1A.png	Mushroom1A.png	blank.png	0.0032999999999999995	1.3718999999999996753
6.6.1	mac	0	2023-12-01	16:28:53	1	1	1	experiment	2	feedback	310	530	700	550	1	85	84	84	4	erasure	no erasure	erasure	0	4			3	8	6820	168	0	173		1	0	258	10	143.9279999999999972715	1999	8	10	8	0.6532278153237951468	0.6999999999999999556		1	168	183	153	243	273	84	3	cloud	wind	Planet1A.png	Ship1A.png	Mushroom1A.png	blank.png	0.0029999999999999996	1.3748999999999995669
6.6.1	mac	0	2023-12-01	16:28:53	1	1	1	experiment	2	clock	230	650	3817	550	1	85	85	85	5	erasure	erasure	erasure	1	1			3	9	6820	147	1	173	0	0	2	237	64			8				0.6999999999999999556	0	4	147	162	132	222	252	85	3	cloud	wind	Planet1A.png	Ship1A.png	Mushroom1A.png	wind0.png	0.0029999999999999996	1.3748999999999995669
6.6.1	mac	0	2023-12-01	16:28:53	1	1	1	experiment	2	feedback	230	650	700	230	1	86	85	85	5	erasure	erasure	erasure	0	1			3	9	6820	147	1	173	1	0	2	237	64	235.2239999999999895408	3267	21	21	21	0.6094135883286161404	0.6999999999999999556	1	4	147	162	132	222	252	85	3	cloud	wind	Planet1A.png	Ship1A.png	Mushroom1A.png	wind0.png	0.0062999999999999992	1.3811999999999995392
6.6.1	mac	0	2023-12-01	16:28:53	1	1	1	experiment	2	clock	130	510	1956	230	1	86	86	86	6	erasure	erasure	erasure	0	2			3	9	6820	147	1	173	1	0	2	237	1			21				0.6999999999999999556	1	4	147	162	132	222	252	86	3	cloud	wind	Planet1A.png	Ship1A.png	Mushroom1A.png	wind0.png	0.0062999999999999992	1.3811999999999995392
6.6.1	mac	0	2023-12-01	16:28:53	1	1	1	experiment	2	feedback	130	510	700	570	1	87	86	86	6	erasure	erasure	erasure	0	2			3	9	6820	147	1	173	2	0	2	237	1	234.4319999999999879492	3256	18	18	18	0.5279801121279551479	0.6999999999999999556	1	4	147	162	132	222	252	86	3	cloud	wind	Planet1A.png	Ship1A.png	Mushroom1A.png	wind0.png	0.0053999999999999994	1.3865999999999996106
6.6.1	mac	0	2023-12-01	16:28:53	1	1	1	experiment	2	clock	220	690	258	570	1	87	87	87	7	erasure	no erasure	erasure	0	3			3	9	6820	147	0	173		1	1	237	14			18				0.6999999999999999556		3.2413793103448274024	147	162	132	222	252	87	3	cloud	wind	Planet1A.png	Ship1A.png	Mushroom1A.png	blank.png	0.0053999999999999994	1.3865999999999996106
6.6.1	mac	0	2023-12-01	16:28:53	1	1	1	experiment	2	feedback	220	690	700	470	1	88	87	87	7	erasure	no erasure	erasure	0	3			3	9	6820	147	0	173		1	1	237	14	158.9759999999999990905	2208	1.9834482758620690657	10	1.9834482758620690657	0.3936577777829155522	0.6999999999999999556		3.2413793103448274024	147	162	132	222	252	87	3	cloud	wind	Planet1A.png	Ship1A.png	Mushroom1A.png	blank.png	0.0029999999999999996	1.3895999999999995023
6.6.1	mac	0	2023-12-01	16:28:53	1	1	1	experiment	2	clock	420	520	317	470	1	88	88	88	8	erasure	no erasure	erasure	0	4			3	9	6820	147	0	173		1	0	237	90			1.9834482758620690657				0.6999999999999999556		2.8620689655172411037	147	162	132	222	252	88	3	cloud	wind	Planet1A.png	Ship1A.png	Mushroom1A.png	blank.png	0.0029999999999999996	1.3895999999999995023
6.6.1	mac	0	2023-12-01	16:28:53	1	1	1	experiment	2	feedback	420	520	700	370	1	89	88	88	8	erasure	no erasure	erasure	0	4			3	9	6820	147	0	173		1	0	237	90	76.8239999999999980673	1067	32	10	10	0.7373198128159437204	0.6999999999999999556		2.8620689655172411037	147	162	132	222	252	88	3	cloud	wind	Planet1A.png	Ship1A.png	Mushroom1A.png	blank.png	0.0029999999999999996	1.3925999999999993939
6.6.1	mac	0	2023-12-01	16:28:53	1	1	1	experiment	2	clock	480	600	750	370	1	89	89	89	9	erasure	erasure	erasure	1	1			3	10	6820	294	1	173	0	0	2	24	66			32				0.6999999999999999556	0	1	294	309	279	9	39	89	3	cloud	wind	Planet1A.png	Ship1A.png	Mushroom1A.png	wind0.png	0.0029999999999999996	1.3925999999999993939
6.6.1	mac	0	2023-12-01	16:28:53	1	1	1	experiment	2	feedback	480	600	700	440	1	90	89	89	9	erasure	erasure	erasure	0	1			3	10	6820	294	1	173	1	0	2	24	66	21.6000000000000014211	300	41	41	41	0.0755696259614940802	0.6999999999999999556	1	1	294	309	279	9	39	89	3	cloud	wind	Planet1A.png	Ship1A.png	Mushroom1A.png	wind0.png	0.0122999999999999984	1.4048999999999993715
6.6.1	mac	0	2023-12-01	16:28:53	1	1	1	experiment	2	clock	260	580	3648	440	1	90	90	90	10	erasure	erasure	erasure	0	2			3	10	6820	294	1	173	1	0	2	24	9			41				0.6999999999999999556	1	1	294	309	279	9	39	90	3	cloud	wind	Planet1A.png	Ship1A.png	Mushroom1A.png	wind0.png	0.0122999999999999984	1.4048999999999993715
6.6.1	mac	0	2023-12-01	16:28:53	1	1	1	experiment	2	feedback	260	580	700	480	1	91	90	90	10	erasure	erasure	erasure	0	2			3	10	6820	294	1	173	2	0	2	24	9	25.0560000000000009379	348	30	30	30	0.2421034996495823044	0.6999999999999999556	1	1	294	309	279	9	39	90	3	cloud	wind	Planet1A.png	Ship1A.png	Mushroom1A.png	wind0.png	0.0089999999999999993	1.4138999999999992685
6.6.1	mac	0	2023-12-01	16:28:53	1	1	1	experiment	2	clock	490	640	267	480	1	91	91	91	1	attention	attention	erasure	0	3			4	10	6820	294	0	145	0	0	2	235	27			30				0.6999999999999999556	0	1	294	309	279	220	250	91	3	cloud	wind	Planet1A.png	Ship1A.png	Mushroom1A.png	fog0.png	0.0089999999999999993	1.4138999999999992685
6.6.1	mac	0	2023-12-01	16:28:53	1	1	1	experiment	2	feedback	490	640	700	220	1	92	91	91	1	attention	attention	erasure	0	3			4	10	6820	294	0	145	0	0	2	235	27	206.4240000000000065938	2867	11	10	10	0.803172210884087745	0.6999999999999999556	0	1	294	309	279	220	250	91	3	cloud	wind	Planet1A.png	Ship1A.png	Mushroom1A.png	fog0.png	0.0029999999999999996	1.4168999999999991601
6.6.1	mac	0	2023-12-01	16:28:53	1	1	1	experiment	2	clock	180	530	308	220	1	92	92	92	2	attention	attention	attention	0	4			4	10	6820	294	0	145	0	0	2	235	92			11				0.6999999999999999556	0	1	294	309	279	220	250	92	3	cloud	wind	Planet1A.png	Ship1A.png	Mushroom1A.png	fog0.png	0.0029999999999999996	1.4168999999999991601
6.6.1	mac	0	2023-12-01	16:28:53	1	1	1	experiment	2	feedback	180	530	700	400	1	93	92	92	2	attention	attention	attention	0	4			4	10	6820	294	0	145	0	0	2	235	92	83.3760000000000047748	1158	29	10	10	0.7228495892423320024	0.6999999999999999556	0	1	294	309	279	220	250	92	3	cloud	wind	Planet1A.png	Ship1A.png	Mushroom1A.png	fog0.png	0.0029999999999999996	1.4198999999999990518
6.6.1	mac	0	2023-12-01	16:28:53	1	1	1	experiment	2	clock	320	570	289	400	1	93	93	93	3	attention	attention	attention	0	5			4	10	6820	294	0	145	0	0	2	235	70			29				0.6999999999999999556	0	1	294	309	279	220	250	93	3	cloud	wind	Planet1A.png	Ship1A.png	Mushroom1A.png	fog0.png	0.0029999999999999996	1.4198999999999990518
6.6.1	mac	0	2023-12-01	16:28:53	1	1	1	experiment	2	feedback	320	570	700	310	1	94	93	93	3	attention	attention	attention	0	5			4	10	6820	294	0	145	0	0	2	235	70	2.8079999999999998295	39	14	14	14	0.0744851660156820861	0.6999999999999999556	0	1	294	309	279	220	250	93	3	cloud	wind	Planet1A.png	Ship1A.png	Mushroom1A.png	fog0.png	0.0041999999999999997	1.4240999999999990333
6.6.1	mac	0	2023-12-01	16:28:53	1	1	1	experiment	2	clock	100	630	261	310	1	94	94	94	4	attention	attention	attention	0	6			4	10	6820	294	0	145	0	0	2	235	20			14				0.6999999999999999556	0	1	294	309	279	220	250	94	3	cloud	wind	Planet1A.png	Ship1A.png	Mushroom1A.png	fog0.png	0.0041999999999999997	1.4240999999999990333
6.6.1	mac	0	2023-12-01	16:28:53	1	1	1	experiment	2	feedback	100	630	700	340	1	95	94	94	4	attention	attention	attention	0	6			4	10	6820	294	0	145	0	0	2	235	20	180.7920000000000015916	2511	39	39	39	0.1302162665245626683	0.6999999999999999556	0	1	294	309	279	220	250	94	3	cloud	wind	Planet1A.png	Ship1A.png	Mushroom1A.png	fog0.png	0.0116999999999999986	1.435799999999999077
6.6.1	mac	0	2023-12-01	16:28:53	1	1	1	experiment	2	clock	340	620	180	340	1	95	95	95	5	attention	attention	attention	0	7			4	10	6820	294	0	145	0	0	2	235	54			39				0.6999999999999999556	0	1	294	309	279	220	250	95	3	cloud	wind	Planet1A.png	Ship1A.png	Mushroom1A.png	fog0.png	0.0116999999999999986	1.435799999999999077
6.6.1	mac	0	2023-12-01	16:28:53	1	1	1	experiment	2	feedback	340	620	700	410	1	96	95	95	5	attention	attention	attention	0	7			4	10	6820	294	0	145	0	0	2	235	54	297.3600000000000136424	4130	1.0560000000000002718	10	10	0.9293080544865941484	0.6999999999999999556	0	1	294	309	279	220	250	95	3	cloud	wind	Planet1A.png	Ship1A.png	Mushroom1A.png	fog0.png	0.0029999999999999996	1.4387999999999989686
6.6.1	mac	0	2023-12-01	16:28:53	1	1	1	experiment	2	clock	460	660	149	410	1	96	96	96	6	attention	attention	attention	0	8			4	10	6820	294	0	145	0	0	2	235	97			1.0560000000000002718				0.6999999999999999556	0	1	294	309	279	220	250	96	3	cloud	wind	Planet1A.png	Ship1A.png	Mushroom1A.png	fog0.png	0.0029999999999999996	1.4387999999999989686
6.6.1	mac	0	2023-12-01	16:28:53	1	1	1	experiment	2	feedback	460	660	700	250	1	97	96	96	6	attention	attention	attention	0	8			4	10	6820	294	0	145	0	0	2	235	97	89.9279999999999972715	1249	72	72	72	0.2169695352709315461	0.6999999999999999556	0	1	294	309	279	220	250	96	3	cloud	wind	Planet1A.png	Ship1A.png	Mushroom1A.png	fog0.png	0.0215999999999999977	1.4603999999999990322
6.6.1	mac	0	2023-12-01	16:28:53	1	1	1	experiment	2	clock	330	550	316	250	1	97	97	97	7	attention	attention	attention	0	9			4	10	6820	294	0	145	0	0	2	235	94			72				0.6999999999999999556	0	1	294	309	279	220	250	97	3	cloud	wind	Planet1A.png	Ship1A.png	Mushroom1A.png	fog0.png	0.0215999999999999977	1.4603999999999990322
6.6.1	mac	0	2023-12-01	16:28:53	1	1	1	experiment	2	feedback	330	550	700	330	1	98	97	97	7	attention	attention	attention	0	9			4	10	6820	294	0	145	0	0	2	235	94	91.1520000000000010232	1266	84	84	84	0.5168346617177209668	0.6999999999999999556	0	1	294	309	279	220	250	97	3	cloud	wind	Planet1A.png	Ship1A.png	Mushroom1A.png	fog0.png	0.0251999999999999967	1.4855999999999989214
6.6.1	mac	0	2023-12-01	16:28:53	1	1	1	experiment	2	clock	400	540	276	330	1	98	98	98	8	attention	attention	attention	0	10			4	10	6820	294	0	145	0	0	2	235	57			84				0.6999999999999999556	0	1	294	309	279	220	250	98	3	cloud	wind	Planet1A.png	Ship1A.png	Mushroom1A.png	fog0.png	0.0251999999999999967	1.4855999999999989214
6.6.1	mac	0	2023-12-01	16:28:53	1	1	1	experiment	2	feedback	400	540	700	390	1	99	98	98	8	attention	attention	attention	0	10			4	10	6820	294	0	145	0	0	2	235	57	315.0720000000000027285	4376	3	10	3	0.4506503821934225162	0.6999999999999999556	0	1	294	309	279	220	250	98	3	cloud	wind	Planet1A.png	Ship1A.png	Mushroom1A.png	fog0.png	0.0029999999999999996	1.488599999999998813
6.6.1	mac	0	2023-12-01	16:28:53	1	1	1	experiment	2	clock	250	610	248	390	1	99	99	99	9	attention	attention	attention	0	11			4	10	6820	294	0	145	0	0	2	235	61			3				0.6999999999999999556	0	1	294	309	279	220	250	99	3	cloud	wind	Planet1A.png	Ship1A.png	Mushroom1A.png	fog0.png	0.0029999999999999996	1.488599999999998813
6.6.1	mac	0	2023-12-01	16:28:53	1	1	1	experiment	2	feedback	250	610	700	530	1	100	99	99	9	attention	attention	attention	0	11			4	10	6820	294	0	145	0	0	2	235	61	327.4560000000000172804	4548	7	10	7	0.4122945362264976432	0.6999999999999999556	0	1	294	309	279	220	250	99	3	cloud	wind	Planet1A.png	Ship1A.png	Mushroom1A.png	fog0.png	0.0029999999999999996	1.4915999999999987047
6.6.1	mac	0	2023-12-01	16:28:53	1	1	1	experiment	2	clock	240	700	249	530	1	100	100	100	10	attention	attention	attention	0	12			4	10	6820	294	0	145	0	0	2	235	89			7				0.6999999999999999556	0	2.5	294	309	279	220	250	100	3	cloud	wind	Planet1A.png	Ship1A.png	Mushroom1A.png	fog0.png	0.0029999999999999996	1.4915999999999987047
6.6.1	mac	0	2023-12-01	16:28:53	1	1	1	experiment	2	feedback	240	700	700	540	1	101	100	100	10	attention	attention	attention	0	12			4	10	6820	294	0	145	0	0	2	235	89	68.3280000000000029559	949	99	10	10	0.8552358580881813666	0.6999999999999999556	0	2.5	294	309	279	220	250	100	3	cloud	wind	Planet1A.png	Ship1A.png	Mushroom1A.png	fog0.png	0.0029999999999999996	1.4945999999999985963
6.6.1	mac	0	2023-12-01	16:28:53	1	1	1	experiment	4	clock	470	560	414	540	2	1	101	1	1	no erasure	no erasure	attention	0	13			4	10	6820	294	0	145		0	2	235	15			99				0.6999999999999999556		3.25	294	309	279	220	250	101	3	cloud	wind	Planet2A.png	Ship2A.png	Mushroom1A.png	blank.png	0.0029999999999999996	1.4945999999999985963
6.6.1	mac	0	2023-12-01	16:28:53	1	1	1	experiment	4	feedback	470	560	700	430	2	2	101	1	1	no erasure	no erasure	attention	0	13			4	10	6820	294	0	145		0	2	235	15	173.807999999999992724	2414	104	104	104	0.109178788286908246	0.6999999999999999556		3.25	294	309	279	220	250	101	3	cloud	wind	Planet2A.png	Ship2A.png	Mushroom2A.png	blank.png	0.0311999999999999986	1.5257999999999984908
6.6.1	mac	0	2023-12-01	16:28:53	1	1	1	experiment	4	clock	390	680	541	430	2	2	102	2	2	no erasure	no erasure	no erasure	0	14			4	10	6820	294	0	145		0	2	235	61			104				0.6999999999999999556		3.625	294	309	279	220	250	102	3	cloud	wind	Planet2A.png	Ship2A.png	Mushroom2A.png	blank.png	0.0311999999999999986	1.5257999999999984908
6.6.1	mac	0	2023-12-01	16:28:53	1	1	1	experiment	4	feedback	390	680	700	240	2	3	102	2	2	no erasure	no erasure	no erasure	0	14			4	10	6820	294	0	145		0	2	235	61	348.5520000000000209184	4841	28	28	28	0.4375821027060928792	0.6999999999999999556		3.625	294	309	279	220	250	102	3	cloud	wind	Planet2A.png	Ship2A.png	Mushroom2A.png	blank.png	0.0083999999999999995	1.5341999999999984539
6.6.1	mac	0	2023-12-01	16:28:53	1	1	1	experiment	4	clock	170	500	859	240	2	3	103	3	3	no erasure	no erasure	no erasure	0	15			4	10	6820	294	0	145		0	2	235	92			28				0.6999999999999999556		3.8125	294	309	279	220	250	103	3	cloud	wind	Planet2A.png	Ship2A.png	Mushroom2A.png	blank.png	0.0083999999999999995	1.5341999999999984539
6.6.1	mac	0	2023-12-01	16:28:53	1	1	1	experiment	4	feedback	170	500	700	520	2	4	103	3	3	no erasure	no erasure	no erasure	0	15			4	10	6820	294	0	145		0	2	235	92	123.048000000000001819	1709	156	10	10	0.7478367017460606503	0.6999999999999999556		3.8125	294	309	279	220	250	103	3	cloud	wind	Planet2A.png	Ship2A.png	Mushroom2A.png	blank.png	0.0029999999999999996	1.5371999999999983455
6.6.1	mac	0	2023-12-01	16:28:53	1	1	1	experiment	4	clock	290	670	612	520	2	4	104	4	4	no erasure	no erasure	no erasure	0	16			4	10	6820	294	0	145		0	2	235	65			156				0.6999999999999999556		3.90625	294	309	279	220	250	104	3	cloud	wind	Planet2A.png	Ship2A.png	Mushroom2A.png	blank.png	0.0029999999999999996	1.5371999999999983455
6.6.1	mac	0	2023-12-01	16:28:53	1	1	1	experiment	4	feedback	290	670	700	450	2	5	104	4	4	no erasure	no erasure	no erasure	0	16			4	10	6820	294	0	145		0	2	235	65	8.0640000000000000568	112	58	58	58	0.0416164198055901588	0.6999999999999999556		3.90625	294	309	279	220	250	104	3	cloud	wind	Planet2A.png	Ship2A.png	Mushroom2A.png	blank.png	0.0173999999999999988	1.5545999999999984276
6.6.1	mac	0	2023-12-01	16:28:53	1	1	1	experiment	4	clock	110	590	820	450	2	5	105	5	5	no erasure	no erasure	no erasure	0				4	10	6820	294	0	145		0	2	235	10			58				0.6999999999999999556		3.90625	294	309	279	220	250	105	3	cloud	wind	Planet2A.png	Ship2A.png	Mushroom2A.png	blank.png	0.0173999999999999988	1.5545999999999984276
6.6.1	mac	0	2023-12-01	16:28:53	1	1	1	experiment	4	feedback	110	590	700	270	2	6	105	5	5	no erasure	no erasure	no erasure	0				4	10	6820	294	0	145		0	2	235	10	185.0399999999999920419	2570	117	10	10	0.9504844881478893281	0.6999999999999999556		3.90625	294	309	279	220	250	105	3	cloud	wind	Planet2A.png	Ship2A.png	Mushroom2A.png	blank.png	0.0029999999999999996	1.5575999999999983192
6.6.1	mac	0	2023-12-01	16:28:53	1	1	1	experiment	4	clock	280	610	701	270	2	6	106	6	6	no erasure	no erasure	no erasure	0				4	10	6820	294	0	145		0	2	235	17			117				0.6999999999999999556		3.90625	294	309	279	220	250	106	3	cloud	wind	Planet2A.png	Ship2A.png	Mushroom2A.png	blank.png	0.0029999999999999996	1.5575999999999983192
6.6.1	mac	0	2023-12-01	16:28:53	1	1	1	experiment	4	feedback	280	610	700	260	2	7	106	6	6	no erasure	no erasure	no erasure	0				4	10	6820	294	0	145		0	2	235	17	201.6719999999999970441	2801	97	97	97	0.3615730221759465013	0.6999999999999999556		3.90625	294	309	279	220	250	106	3	cloud	wind	Planet2A.png	Ship2A.png	Mushroom2A.png	blank.png	0.0290999999999999974	1.5866999999999982229
6.6.1	mac	0	2023-12-01	16:28:53	1	1	1	experiment	4	clock	350	620	696	260	2	7	107	7	7	no erasure	no erasure	no erasure	0				4	10	6820	294	0	145		0	2	235	59			97				0.6999999999999999556		3.90625	294	309	279	220	250	107	3	cloud	wind	Planet2A.png	Ship2A.png	Mushroom2A.png	blank.png	0.0290999999999999974	1.5866999999999982229
6.6.1	mac	0	2023-12-01	16:28:53	1	1	1	experiment	4	feedback	350	620	700	360	2	8	107	7	7	no erasure	no erasure	no erasure	0				4	10	6820	294	0	145		0	2	235	59	352.5120000000000004547	4896	50	50	50	0.50835398433458856	0.6999999999999999556		3.90625	294	309	279	220	250	107	3	cloud	wind	Planet2A.png	Ship2A.png	Mushroom2A.png	blank.png	0.0149999999999999994	1.6016999999999981252
6.6.1	mac	0	2023-12-01	16:28:53	1	1	1	experiment	4	clock	370	700	234	360	2	8	108	8	8	no erasure	no erasure	no erasure	0				4	10	6820	294	0	145		0	2	235	33			50				0.6999999999999999556		3.90625	294	309	279	220	250	108	3	cloud	wind	Planet2A.png	Ship2A.png	Mushroom2A.png	blank.png	0.0149999999999999994	1.6016999999999981252
6.6.1	mac	0	2023-12-01	16:28:53	1	1	1	experiment	4	feedback	370	700	700	460	2	9	108	8	8	no erasure	no erasure	no erasure	0				4	10	6820	294	0	145		0	2	235	33	225.6479999999999961346	3134	58	58	58	0.6667730507130671391	0.6999999999999999556		3.90625	294	309	279	220	250	108	3	cloud	wind	Planet2A.png	Ship2A.png	Mushroom2A.png	blank.png	0.0173999999999999988	1.6190999999999982073
6.6.1	mac	0	2023-12-01	16:28:53	1	1	1	experiment	4	clock	360	500	369	460	2	9	109	9	9	no erasure	no erasure	no erasure	0				4	10	6820	294	0	145		0	2	235	54			58				0.6999999999999999556		3.90625	294	309	279	220	250	109	3	cloud	wind	Planet2A.png	Ship2A.png	Mushroom2A.png	blank.png	0.0173999999999999988	1.6190999999999982073
6.6.1	mac	0	2023-12-01	16:28:53	1	1	1	experiment	4	feedback	360	500	700	500	2	10	109	9	9	no erasure	no erasure	no erasure	0				4	10	6820	294	0	145		0	2	235	54	310.9680000000000177351	4319	6	10	10	0.8369369816121032812	0.6999999999999999556		3.90625	294	309	279	220	250	109	3	cloud	wind	Planet2A.png	Ship2A.png	Mushroom2A.png	blank.png	0.0029999999999999996	1.6220999999999980989
6.6.1	mac	0	2023-12-01	16:28:53	1	1	1	experiment	4	clock	190	640	197	500	2	10	110	10	10	no erasure	no erasure	no erasure	0				4	10	6820	294	0	145		0	2	235	57			6				0.6999999999999999556		3.90625	294	309	279	220	250	110	3	cloud	wind	Planet2A.png	Ship2A.png	Mushroom2A.png	blank.png	0.0029999999999999996	1.6220999999999980989
6.6.1	mac	0	2023-12-01	16:28:53	1	1	1	experiment	4	feedback	190	640	700	290	2	11	110	10	10	no erasure	no erasure	no erasure	0				4	10	6820	294	0	145		0	2	235	57	309.3840000000000145519	4297	5	10	5	0.2415683768320754932	0.6999999999999999556		3.90625	294	309	279	220	250	110	3	cloud	wind	Planet2A.png	Ship2A.png	Mushroom2A.png	blank.png	0.0029999999999999996	1.6250999999999979906
6.6.1	mac	0	2023-12-01	16:28:53	1	1	1	experiment	4	clock	410	650	454	290	2	11	111	11	1	erasure	erasure	no erasure	1	1			4	11	6820	129	1	145	0	0	2	219	27			5				0.6999999999999999556	0	194	129	144	114	204	234	111	4	cloud	wind	Planet2A.png	Ship2A.png	Mushroom2A.png	wind0.png	0.0029999999999999996	1.6250999999999979906
6.6.1	mac	0	2023-12-01	16:28:53	1	1	1	experiment	4	feedback	410	650	700	600	2	12	111	11	1	erasure	erasure	no erasure	0	1			4	11	6820	129	1	145	1	0	2	219	27	219.8880000000000052296	3054	68	68	68	0.2986157194940875503	0.6999999999999999556	1	194	129	144	114	204	234	111	4	cloud	wind	Planet2A.png	Ship2A.png	Mushroom2A.png	wind0.png	0.020399999999999998	1.6454999999999979643
6.6.1	mac	0	2023-12-01	16:28:53	1	1	1	experiment	4	clock	500	680	1867	600	2	12	112	12	2	erasure	erasure	erasure	0	2			4	11	6820	129	1	145	1	0	2	219	99			68				0.6999999999999999556	1	194	129	144	114	204	234	112	4	cloud	wind	Planet2A.png	Ship2A.png	Mushroom2A.png	wind0.png	0.020399999999999998	1.6454999999999979643
6.6.1	mac	0	2023-12-01	16:28:53	1	1	1	experiment	4	feedback	500	680	700	510	2	13	112	12	2	erasure	erasure	erasure	0	2			4	11	6820	129	1	145	2	0	2	219	99	220.8240000000000122782	3067	65	10	10	0.8086597211213455427	0.6999999999999999556	1	194	129	144	114	204	234	112	4	cloud	wind	Planet2A.png	Ship2A.png	Mushroom2A.png	wind0.png	0.0029999999999999996	1.6484999999999978559
6.6.1	mac	0	2023-12-01	16:28:53	1	1	1	experiment	4	clock	140	660	500	510	2	13	113	13	3	erasure	no erasure	erasure	0	3			4	11	6820	129	0	145		1	1	219	56			65				0.6999999999999999556		194	129	144	114	204	234	113	4	cloud	wind	Planet2A.png	Ship2A.png	Mushroom2A.png	blank.png	0.0029999999999999996	1.6484999999999978559
6.6.1	mac	0	2023-12-01	16:28:53	1	1	1	experiment	4	feedback	140	660	700	490	2	14	113	13	3	erasure	no erasure	erasure	0	3			4	11	6820	129	0	145		1	1	219	56	327.6000000000000227374	4550	23	10	10	0.7668589006100918759	0.6999999999999999556		194	129	144	114	204	234	113	4	cloud	wind	Planet2A.png	Ship2A.png	Mushroom2A.png	blank.png	0.0029999999999999996	1.6514999999999977476
6.6.1	mac	0	2023-12-01	16:28:53	1	1	1	experiment	4	clock	150	570	402	490	2	14	114	14	4	erasure	no erasure	erasure	0	4			4	11	6820	129	0	145		1	0	219	36			23				0.6999999999999999556		194	129	144	114	204	234	114	4	cloud	wind	Planet2A.png	Ship2A.png	Mushroom2A.png	blank.png	0.0029999999999999996	1.6514999999999977476
6.6.1	mac	0	2023-12-01	16:28:53	1	1	1	experiment	4	feedback	150	570	700	210	2	15	114	14	4	erasure	no erasure	erasure	0	4			4	11	6820	129	0	145		1	0	219	36	248.5440000000000111413	3452	23	10	10	0.7944720123881642282	0.6999999999999999556		194	129	144	114	204	234	114	4	cloud	wind	Planet2A.png	Ship2A.png	Mushroom2A.png	blank.png	0.0029999999999999996	1.6544999999999976392
6.6.1	mac	0	2023-12-01	16:28:53	1	1	1	experiment	4	clock	200	560	4712	210	2	15	115	15	5	erasure	erasure	erasure	1	1			4	12	6820	182	1	145	0	0	2	272	57			23				0.6999999999999999556	0	122	182	197	167	257	287	115	4	cloud	wind	Planet2A.png	Ship2A.png	Mushroom2A.png	wind0.png	0.0029999999999999996	1.6544999999999976392
6.6.1	mac	0	2023-12-01	16:28:53	1	1	1	experiment	4	feedback	200	560	700	200	2	16	115	15	5	erasure	erasure	erasure	0	1			4	12	6820	182	1	145	1	0	2	272	57	274.4639999999999986358	3812	3	10	3	0.139876686069154349	0.6999999999999999556	1	122	182	197	167	257	287	115	4	cloud	wind	Planet2A.png	Ship2A.png	Mushroom2A.png	wind0.png	0.0029999999999999996	1.6574999999999975309
6.6.1	mac	0	2023-12-01	16:28:53	1	1	1	experiment	4	clock	160	530	2714	200	2	16	116	16	6	erasure	erasure	erasure	0	2			4	12	6820	182	1	145	1	0	2	272	97			3				0.6999999999999999556	1	122	182	197	167	257	287	116	4	cloud	wind	Planet2A.png	Ship2A.png	Mushroom2A.png	wind0.png	0.0029999999999999996	1.6574999999999975309
6.6.1	mac	0	2023-12-01	16:28:53	1	1	1	experiment	4	feedback	160	530	700	590	2	17	116	16	6	erasure	erasure	erasure	0	2			4	12	6820	182	1	145	2	0	2	272	97	274.6080000000000040927	3814	3	10	3	0.6126057623449260303	0.6999999999999999556	1	122	182	197	167	257	287	116	4	cloud	wind	Planet2A.png	Ship2A.png	Mushroom2A.png	wind0.png	0.0029999999999999996	1.6604999999999974225
6.6.1	mac	0	2023-12-01	16:28:53	1	1	1	experiment	4	clock	120	550	375	590	2	17	117	17	7	erasure	no erasure	erasure	0	3			4	12	6820	182	0	145		1	1	272	85			3				0.6999999999999999556		122	182	197	167	257	287	117	4	cloud	wind	Planet2A.png	Ship2A.png	Mushroom2A.png	blank.png	0.0029999999999999996	1.6604999999999974225
6.6.1	mac	0	2023-12-01	16:28:53	1	1	1	experiment	4	feedback	120	550	700	380	2	18	117	17	7	erasure	no erasure	erasure	0	3			4	12	6820	182	0	145		1	1	272	85	63	875	171	150	171	0.6156569457649385679	0.6999999999999999556		122	182	197	167	257	287	117	4	cloud	wind	Planet2A.png	Ship2A.png	Mushroom2A.png	blank.png	0.0449999999999999983	1.7054999999999973515
6.6.1	mac	0	2023-12-01	16:28:53	1	1	1	experiment	4	clock	300	630	259	380	2	18	118	18	8	erasure	no erasure	erasure	0	4			4	12	6820	182	0	145		1	0	272	74			171				0.6999999999999999556		122	182	197	167	257	287	118	4	cloud	wind	Planet2A.png	Ship2A.png	Mushroom2A.png	blank.png	0.0449999999999999983	1.7054999999999973515
6.6.1	mac	0	2023-12-01	16:28:53	1	1	1	experiment	4	feedback	300	630	700	350	2	19	118	18	8	erasure	no erasure	erasure	0	4			4	12	6820	182	0	145		1	0	272	74	15.0480000000000000426	209	95	95	95	0.2371299111370765433	0.6999999999999999556		122	182	197	167	257	287	118	4	cloud	wind	Planet2A.png	Ship2A.png	Mushroom2A.png	blank.png	0.0284999999999999976	1.7339999999999973213
6.6.1	mac	0	2023-12-01	16:28:53	1	1	1	experiment	4	clock	440	580	780	350	2	19	119	19	9	erasure	erasure	erasure	1	1			4	13	6820	117	1	145	0	0	2	207	16			95				0.6999999999999999556	0	148	117	132	102	192	222	119	4	cloud	wind	Planet2A.png	Ship2A.png	Mushroom2A.png	wind0.png	0.0284999999999999976	1.7339999999999973213
6.6.1	mac	0	2023-12-01	16:28:53	1	1	1	experiment	4	feedback	440	580	700	580	2	20	119	19	9	erasure	erasure	erasure	0	1			4	13	6820	117	1	145	1	0	2	207	16	203.7599999999999909051	2830	85	85	85	0.2735130799174106397	0.6999999999999999556	1	148	117	132	102	192	222	119	4	cloud	wind	Planet2A.png	Ship2A.png	Mushroom2A.png	wind0.png	0.0254999999999999984	1.7594999999999973994
6.6.1	mac	0	2023-12-01	16:28:53	1	1	1	experiment	4	clock	430	540	4384	580	2	20	120	20	10	erasure	erasure	erasure	0	2			4	13	6820	117	1	145	1	0	2	207	45			85				0.6999999999999999556	1	148	117	132	102	192	222	120	4	cloud	wind	Planet2A.png	Ship2A.png	Mushroom2A.png	wind0.png	0.0254999999999999984	1.7594999999999973994
6.6.1	mac	0	2023-12-01	16:28:53	1	1	1	experiment	4	feedback	430	540	700	300	2	21	120	20	10	erasure	erasure	erasure	0	2			4	13	6820	117	1	145	2	0	2	207	45	207.6479999999999961346	2884	71	71	71	0.1603834999632983149	0.6999999999999999556	1	148	117	132	102	192	222	120	4	cloud	wind	Planet2A.png	Ship2A.png	Mushroom2A.png	wind0.png	0.0212999999999999995	1.780799999999997496
6.6.1	mac	0	2023-12-01	16:28:53	1	1	1	experiment	4	clock	380	690	213	300	2	21	121	21	11	erasure	no erasure	erasure	0	3			4	13	6820	117	0	145		1	1	207	45			71				0.6999999999999999556		128.8899999999999863576	117	132	102	192	222	121	4	cloud	wind	Planet2A.png	Ship2A.png	Mushroom2A.png	blank.png	0.0212999999999999995	1.780799999999997496
6.6.1	mac	0	2023-12-01	16:28:53	1	1	1	experiment	4	feedback	380	690	700	560	2	22	121	21	11	erasure	no erasure	erasure	0	3			4	13	6820	117	0	145		1	1	207	45	267.3360000000000127329	3713	5	10	5	0.2482675698698189881	0.6999999999999999556		128.8899999999999863576	117	132	102	192	222	121	4	cloud	wind	Planet2A.png	Ship2A.png	Mushroom2A.png	blank.png	0.0029999999999999996	1.7837999999999973877
6.6.1	mac	0	2023-12-01	16:28:53	1	1	1	experiment	4	clock	270	510	361	560	2	22	122	22	12	erasure	no erasure	erasure	0	4			4	13	6820	117	0	145		1	0	207	76			5				0.6999999999999999556		119.3349999999999937472	117	132	102	192	222	122	4	cloud	wind	Planet2A.png	Ship2A.png	Mushroom2A.png	blank.png	0.0029999999999999996	1.7837999999999973877
6.6.1	mac	0	2023-12-01	16:28:53	1	1	1	experiment	4	feedback	270	510	700	280	2	23	122	22	12	erasure	no erasure	erasure	0	4			4	13	6820	117	0	145		1	0	207	76	29.5919999999999987494	411	101	101	101	0.5492165266883598518	0.6999999999999999556		119.3349999999999937472	117	132	102	192	222	122	4	cloud	wind	Planet2A.png	Ship2A.png	Mushroom2A.png	blank.png	0.0302999999999999971	1.8140999999999973813
6.6.1	mac	0	2023-12-01	16:28:53	1	1	1	experiment	4	clock	450	670	908	280	2	23	123	23	13	erasure	erasure	erasure	1	1			4	14	6820	330	1	145	0	0	2	60	72			101				0.6999999999999999556	0	49	330	345	315	45	75	123	4	cloud	wind	Planet2A.png	Ship2A.png	Mushroom2A.png	wind0.png	0.0302999999999999971	1.8140999999999973813
6.6.1	mac	0	2023-12-01	16:28:53	1	1	1	experiment	4	feedback	450	670	700	420	2	24	123	23	13	erasure	erasure	erasure	0	1			4	14	6820	330	1	145	1	0	2	60	72	54.5760000000000005116	758	122	122	122	0.4133004393459531745	0.6999999999999999556	1	49	330	345	315	45	75	123	4	cloud	wind	Planet2A.png	Ship2A.png	Mushroom2A.png	wind0.png	0.0365999999999999936	1.8506999999999973472
6.6.1	mac	0	2023-12-01	16:28:53	1	1	1	experiment	4	clock	220	520	1731	420	2	24	124	24	14	erasure	erasure	erasure	0	2			4	14	6820	330	1	145	1	0	2	60	55			122				0.6999999999999999556	1	49	330	345	315	45	75	124	4	cloud	wind	Planet2A.png	Ship2A.png	Mushroom2A.png	wind0.png	0.0365999999999999936	1.8506999999999973472
6.6.1	mac	0	2023-12-01	16:28:53	1	1	1	experiment	4	feedback	220	520	700	390	2	25	124	24	14	erasure	erasure	erasure	0	2			4	14	6820	330	1	145	2	0	2	60	55	52.6319999999999978968	731	110	110	110	0.1089120132636539617	0.6999999999999999556	1	49	330	345	315	45	75	124	4	cloud	wind	Planet2A.png	Ship2A.png	Mushroom2A.png	wind0.png	0.0329999999999999946	1.8836999999999972655
6.6.1	mac	0	2023-12-01	16:28:53	1	1	1	experiment	4	clock	200	600	485	390	2	25	125	25	15	erasure	no erasure	erasure	0	3			4	14	6820	330	0	145		1	1	60	44			110				0.6999999999999999556		40.6241610738254976809	330	345	315	45	75	125	4	cloud	wind	Planet2A.png	Ship2A.png	Mushroom2A.png	blank.png	0.0329999999999999946	1.8836999999999972655
6.6.1	mac	0	2023-12-01	16:28:53	1	1	1	experiment	4	feedback	200	600	700	550	2	26	125	25	15	erasure	no erasure	erasure	0	3			4	14	6820	330	0	145		1	1	60	44	283.3199999999999931788	3935	1	10	1	0.2078889385349790009	0.6999999999999999556		40.6241610738254976809	330	345	315	45	75	125	4	cloud	wind	Planet2A.png	Ship2A.png	Mushroom2A.png	blank.png	0.0029999999999999996	1.8866999999999971571
6.6.1	mac	0	2023-12-01	16:28:53	1	1	1	experiment	4	clock	430	590	359	550	2	26	126	26	16	erasure	no erasure	erasure	0	4			4	14	6820	330	0	145		1	0	60	28			1				0.6999999999999999556		36.4362416107382500741	330	345	315	45	75	126	4	cloud	wind	Planet2A.png	Ship2A.png	Mushroom2A.png	blank.png	0.0029999999999999996	1.8866999999999971571
6.6.1	mac	0	2023-12-01	16:28:53	1	1	1	experiment	4	feedback	430	590	700	200	2	27	126	26	16	erasure	no erasure	erasure	0	4			4	14	6820	330	0	145		1	0	60	28	216.6479999999999961346	3009	33	10	10	0.9929580157606299196	0.6999999999999999556		36.4362416107382500741	330	345	315	45	75	126	4	cloud	wind	Planet2A.png	Ship2A.png	Mushroom2A.png	blank.png	0.0029999999999999996	1.8896999999999970488
6.6.1	mac	0	2023-12-01	16:28:53	1	1	1	experiment	4	clock	390	550	2947	200	2	27	127	27	17	erasure	erasure	erasure	1	1			4	15	6820	158	1	145	0	0	2	248	85			33				0.6999999999999999556	0	149	158	173	143	233	263	127	4	cloud	wind	Planet2A.png	Ship2A.png	Mushroom2A.png	wind0.png	0.0029999999999999996	1.8896999999999970488
6.6.1	mac	0	2023-12-01	16:28:53	1	1	1	experiment	4	feedback	390	550	700	270	2	28	127	27	17	erasure	erasure	erasure	0	1			4	15	6820	158	1	145	1	0	2	248	85	248.1839999999999974989	3447	9	10	10	0.7325785031385203538	0.6999999999999999556	1	149	158	173	143	233	263	127	4	cloud	wind	Planet2A.png	Ship2A.png	Mushroom2A.png	wind0.png	0.0029999999999999996	1.8926999999999969404
6.6.1	mac	0	2023-12-01	16:28:53	1	1	1	experiment	4	clock	300	680	1261	270	2	28	128	28	18	erasure	erasure	erasure	0	2			4	15	6820	158	1	145	1	0	2	248	19			9				0.6999999999999999556	1	149	158	173	143	233	263	128	4	cloud	wind	Planet2A.png	Ship2A.png	Mushroom2A.png	wind0.png	0.0029999999999999996	1.8926999999999969404
6.6.1	mac	0	2023-12-01	16:28:53	1	1	1	experiment	4	feedback	300	680	700	420	2	29	128	28	18	erasure	erasure	erasure	0	2			4	15	6820	158	1	145	2	0	2	248	19	249.192000000000007276	3461	8	10	8	0.1723129193234054779	0.6999999999999999556	1	149	158	173	143	233	263	128	4	cloud	wind	Planet2A.png	Ship2A.png	Mushroom2A.png	wind0.png	0.0029999999999999996	1.895699999999996832
6.6.1	mac	0	2023-12-01	16:28:53	1	1	1	experiment	4	clock	170	600	380	420	2	29	129	29	19	erasure	no erasure	erasure	0	3			4	15	6820	158	0	145		1	1	248	98			8				0.6999999999999999556		109.3298969072164936733	158	173	143	233	263	129	4	cloud	wind	Planet2A.png	Ship2A.png	Mushroom2A.png	blank.png	0.0029999999999999996	1.895699999999996832
6.6.1	mac	0	2023-12-01	16:28:53	1	1	1	experiment	4	feedback	170	600	700	600	2	30	129	29	19	erasure	no erasure	erasure	0	3			4	15	6820	158	0	145		1	1	248	98	110.1599999999999965894	1530	72	72	72	0.5947335727034913644	0.6999999999999999556		109.3298969072164936733	158	173	143	233	263	129	4	cloud	wind	Planet2A.png	Ship2A.png	Mushroom2A.png	blank.png	0.0215999999999999977	1.9172999999999968956
6.6.1	mac	0	2023-12-01	16:28:53	1	1	1	experiment	4	clock	280	520	405	600	2	30	130	30	20	erasure	no erasure	erasure	0	4			4	15	6820	158	0	145		1	0	248	98			72				0.6999999999999999556		91.0206185567010237492	158	173	143	233	263	130	4	cloud	wind	Planet2A.png	Ship2A.png	Mushroom2A.png	blank.png	0.0215999999999999977	1.9172999999999968956
6.6.1	mac	0	2023-12-01	16:28:53	1	1	1	experiment	4	feedback	280	520	700	310	2	31	130	30	20	erasure	no erasure	erasure	0	4			4	15	6820	158	0	145		1	0	248	98	111.9599999999999937472	1555	59	59	59	0.4854046074872381267	0.6999999999999999556		91.0206185567010237492	158	173	143	233	263	130	4	cloud	wind	Planet2A.png	Ship2A.png	Mushroom2A.png	blank.png	0.017699999999999997	1.9349999999999969447
6.6.1	mac	0	2023-12-01	16:28:53	1	1	1	experiment	4	clock	380	500	366	310	2	31	131	31	1	no erasure	no erasure	erasure	1	5			4	15	6820	158	0	145		0	2	248	19			59				0.6999999999999999556		71.1855670103092705858	158	173	143	233	263	131	4	cloud	wind	Planet2A.png	Ship2A.png	Mushroom2A.png	blank.png	0.017699999999999997	1.9349999999999969447
6.6.1	mac	0	2023-12-01	16:28:53	1	1	1	experiment	4	feedback	380	500	700	410	2	32	131	31	1	no erasure	no erasure	erasure	0	5			4	15	6820	158	0	145		0	2	248	19	184.7520000000000095497	2566	27	27	27	0.1151045495912210448	0.6999999999999999556		71.1855670103092705858	158	173	143	233	263	131	4	cloud	wind	Planet2A.png	Ship2A.png	Mushroom2A.png	blank.png	0.0080999999999999996	1.9430999999999969408
6.6.1	mac	0	2023-12-01	16:28:53	1	1	1	experiment	4	clock	270	610	300	410	2	32	132	32	2	no erasure	no erasure	no erasure	0	6			4	15	6820	158	0	145		0	2	248	97			27				0.6999999999999999556		51.3505154639175245279	158	173	143	233	263	132	4	cloud	wind	Planet2A.png	Ship2A.png	Mushroom2A.png	blank.png	0.0080999999999999996	1.9430999999999969408
6.6.1	mac	0	2023-12-01	16:28:53	1	1	1	experiment	4	feedback	270	610	700	290	2	33	132	32	2	no erasure	no erasure	no erasure	0	6			4	15	6820	158	0	145		0	2	248	97	100.7999999999999971578	1400	34	10	10	0.8075294084398842998	0.6999999999999999556		51.3505154639175245279	158	173	143	233	263	132	4	cloud	wind	Planet2A.png	Ship2A.png	Mushroom2A.png	blank.png	0.0029999999999999996	1.9460999999999968324
6.6.1	mac	0	2023-12-01	16:28:53	1	1	1	experiment	4	clock	400	560	462	290	2	33	133	33	3	no erasure	no erasure	no erasure	0	7			4	15	6820	158	0	145		0	2	248	15			34				0.6999999999999999556		31.5154639175257713646	158	173	143	233	263	133	4	cloud	wind	Planet2A.png	Ship2A.png	Mushroom2A.png	blank.png	0.0029999999999999996	1.9460999999999968324
6.6.1	mac	0	2023-12-01	16:28:53	1	1	1	experiment	4	feedback	400	560	700	300	2	34	133	33	3	no erasure	no erasure	no erasure	0	7			4	15	6820	158	0	145		0	2	248	15	177.2640000000000100044	2462	19	19	19	0.5571686214667671555	0.6999999999999999556		31.5154639175257713646	158	173	143	233	263	133	4	cloud	wind	Planet2A.png	Ship2A.png	Mushroom2A.png	blank.png	0.0056999999999999993	1.9517999999999968708
6.6.1	mac	0	2023-12-01	16:28:53	1	1	1	experiment	4	clock	340	540	335	300	2	34	134	34	4	no erasure	no erasure	no erasure	0	8			4	15	6820	158	0	145		0	2	248	58			19				0.6999999999999999556		49.8247422680412341833	158	173	143	233	263	134	4	cloud	wind	Planet2A.png	Ship2A.png	Mushroom2A.png	blank.png	0.0056999999999999993	1.9517999999999968708
6.6.1	mac	0	2023-12-01	16:28:53	1	1	1	experiment	4	feedback	340	540	700	500	2	35	134	34	4	no erasure	no erasure	no erasure	0	8			4	15	6820	158	0	145		0	2	248	58	322.9200000000000159162	4485	11	11	11	0.3218430276778160848	0.6999999999999999556		49.8247422680412341833	158	173	143	233	263	134	4	cloud	wind	Planet2A.png	Ship2A.png	Mushroom2A.png	blank.png	0.0032999999999999995	1.9550999999999969514
6.6.1	mac	0	2023-12-01	16:28:53	1	1	1	experiment	4	clock	360	530	377	500	2	35	135	35	5	no erasure	no erasure	no erasure	0	9			4	15	6820	158	0	145		0	2	248	70			11				0.6999999999999999556		68.1340206185566898966	158	173	143	233	263	135	4	cloud	wind	Planet2A.png	Ship2A.png	Mushroom2A.png	blank.png	0.0032999999999999995	1.9550999999999969514
6.6.1	mac	0	2023-12-01	16:28:53	1	1	1	experiment	4	feedback	360	530	700	360	2	36	135	35	5	no erasure	no erasure	no erasure	0	9			4	15	6820	158	0	145		0	2	248	70	9.1440000000000001279	127	2	10	2	0.2562166758012531242	0.6999999999999999556		68.1340206185566898966	158	173	143	233	263	135	4	cloud	wind	Planet2A.png	Ship2A.png	Mushroom2A.png	blank.png	0.0029999999999999996	1.9580999999999968431
