build	computer.platform	computer.touch	date	time	subject	group	sessionid	blockcode	blocknum	trialcode	list.ITI.currentvalue	list.preClockFreeze.currentvalue	latency	list.ISI.currentvalue	block	trialCount	trial	run_trial	block_trial	block_type	trial_type	last_block_type	generate_new_erasure	trial_since_erasure_gen	deg_index_att	deg_index_era	att_index	era_index	seed	list.era_loc.currentvalue	has_erasure	list.att_loc.currentvalue	n_clicks	timeout_block	timeouts_remain	stim_center_deg	startPos	pos_shifted	rt_shifted	mag	inc_rg	inc	rng	freq	choose_stim	erasure_value	erasure_RT	right_index	left_index	stim_left_deg	stim_right_deg	trial	erasure_blocks	attentional_control	local_uncertainty	picture.planet.item.1	picture.animatedCircle.item.1	picture.feedback2.items.1	Earnings	totalEarnings
6.6.1	mac	0	2023-12-01	11:54:59	1	1	1	experiment	1	clock	460	640	282		1	1	1	1	1	attention	attention		1				1	0	2455		0	232	0	0	2	322	16			0				0.6999999999999999556	0					307	337	1	0	cloud	wind	Planet1A.png	Ship1A.png	blank.png		0
6.6.1	mac	0	2023-12-01	11:54:59	1	1	1	experiment	1	feedback	460	640	700	360	1	2	1	1	1	attention	attention		0				1	0	2455		0	232	0	0	2	322	16	167.903999999999996362	2332	199	10	10	0.9400643296400235105	0.6999999999999999556	0					307	337	1	0	cloud	wind	Planet1A.png	Ship1A.png	Mushroom1A.png	0.0029999999999999996	0.0029999999999999996
6.6.1	mac	0	2023-12-01	11:54:59	1	1	1	experiment	1	clock	480	540	81	360	1	2	2	2	2	attention	attention	attention	0				1	0	2455		0	232	0	0	2	322	30			199				0.6999999999999999556	0					307	337	2	0	cloud	wind	Planet1A.png	Ship1A.png	Mushroom1A.png	0.0029999999999999996	0.0029999999999999996
6.6.1	mac	0	2023-12-01	11:54:59	1	1	1	experiment	1	feedback	480	540	700	210	1	3	2	2	2	attention	attention	attention	0				1	0	2455		0	232	0	0	2	322	30	203.8319999999999936335	2831	171	10	10	0.7039516234546787654	0.6999999999999999556	0					307	337	2	0	cloud	wind	Planet1A.png	Ship1A.png	Mushroom1A.png	0.0029999999999999996	0.0059999999999999993
6.6.1	mac	0	2023-12-01	11:54:59	1	1	1	experiment	1	clock	290	500	295	210	1	3	3	3	3	attention	attention	attention	0				1	0	2455		0	232	0	0	2	322	78			171				0.6999999999999999556	0					307	337	3	0	cloud	wind	Planet1A.png	Ship1A.png	Mushroom1A.png	0.0029999999999999996	0.0059999999999999993
6.6.1	mac	0	2023-12-01	11:54:59	1	1	1	experiment	1	feedback	290	500	700	270	1	4	3	3	3	attention	attention	attention	0				1	0	2455		0	232	0	0	2	322	78	32.0399999999999991473	445	37	37	37	0.4295856243533980323	0.6999999999999999556	0					307	337	3	0	cloud	wind	Planet1A.png	Ship1A.png	Mushroom1A.png	0.0110999999999999988	0.0170999999999999971
6.6.1	mac	0	2023-12-01	11:54:59	1	1	1	experiment	1	clock	370	570	211	270	1	4	4	4	4	attention	attention	attention	0				1	0	2455		0	232	0	0	2	322	73			37				0.6999999999999999556	0					307	337	4	0	cloud	wind	Planet1A.png	Ship1A.png	Mushroom1A.png	0.0110999999999999988	0.0170999999999999971
6.6.1	mac	0	2023-12-01	11:54:59	1	1	1	experiment	1	feedback	370	570	700	410	1	5	4	4	4	attention	attention	attention	0				1	0	2455		0	232	0	0	2	322	73	7.9919999999999999929	111	13	13	13	0.3836569891738838001	0.6999999999999999556	0					307	337	4	0	cloud	wind	Planet1A.png	Ship1A.png	Mushroom1A.png	0.0038999999999999998	0.0209999999999999978
6.6.1	mac	0	2023-12-01	11:54:59	1	1	1	experiment	1	clock	260	550	292	410	1	5	5	5	5	attention	attention	attention	0				1	0	2455		0	232	0	0	2	322	87			13				0.6999999999999999556	0					307	337	5	0	cloud	wind	Planet1A.png	Ship1A.png	Mushroom1A.png	0.0038999999999999998	0.0209999999999999978
6.6.1	mac	0	2023-12-01	11:54:59	1	1	1	experiment	1	feedback	260	550	700	220	1	6	5	5	5	attention	attention	attention	0				1	0	2455		0	232	0	0	2	322	87	64.2240000000000037517	892	89	10	10	0.927363123494983399	0.6999999999999999556	0					307	337	5	0	cloud	wind	Planet1A.png	Ship1A.png	Mushroom1A.png	0.0029999999999999996	0.023999999999999997
6.6.1	mac	0	2023-12-01	11:54:59	1	1	1	experiment	1	clock	270	560	288	220	1	6	6	6	6	attention	attention	attention	0				1	0	2455		0	232	0	0	2	322	26			89				0.6999999999999999556	0					307	337	6	0	cloud	wind	Planet1A.png	Ship1A.png	Mushroom1A.png	0.0029999999999999996	0.023999999999999997
6.6.1	mac	0	2023-12-01	11:54:59	1	1	1	experiment	1	feedback	270	560	700	550	1	7	6	6	6	attention	attention	attention	0				1	0	2455		0	232	0	0	2	322	26	204.3360000000000127329	2838	170	10	10	0.7897091740252704106	0.6999999999999999556	0					307	337	6	0	cloud	wind	Planet1A.png	Ship1A.png	Mushroom1A.png	0.0029999999999999996	0.0269999999999999962
6.6.1	mac	0	2023-12-01	11:54:59	1	1	1	experiment	1	clock	390	520	360	550	1	7	7	7	7	attention	attention	attention	0				1	0	2455		0	232	0	0	2	322	98			170				0.6999999999999999556	0					307	337	7	0	cloud	wind	Planet1A.png	Ship1A.png	Mushroom1A.png	0.0029999999999999996	0.0269999999999999962
6.6.1	mac	0	2023-12-01	11:54:59	1	1	1	experiment	1	feedback	390	520	700	570	1	8	7	7	7	attention	attention	attention	0				1	0	2455		0	232	0	0	2	322	98	108.7199999999999988631	1510	143	10	10	0.7082364339633463457	0.6999999999999999556	0					307	337	7	0	cloud	wind	Planet1A.png	Ship1A.png	Mushroom1A.png	0.0029999999999999996	0.0299999999999999954
6.6.1	mac	0	2023-12-01	11:54:59	1	1	1	experiment	1	clock	340	670	346	570	1	8	8	8	8	attention	attention	attention	0				1	0	2455		0	232	0	0	2	322	4			143				0.6999999999999999556	0					307	337	8	0	cloud	wind	Planet1A.png	Ship1A.png	Mushroom1A.png	0.0029999999999999996	0.0299999999999999954
6.6.1	mac	0	2023-12-01	11:54:59	1	1	1	experiment	1	feedback	340	670	700	260	1	9	8	8	8	attention	attention	attention	0				1	0	2455		0	232	0	0	2	322	4	129.3120000000000118234	1796	138	138	138	0.5861984993298999802	0.6999999999999999556	0					307	337	8	0	cloud	wind	Planet1A.png	Ship1A.png	Mushroom1A.png	0.0413999999999999993	0.0713999999999999913
6.6.1	mac	0	2023-12-01	11:54:59	1	1	1	experiment	1	clock	410	690	558	260	1	9	9	9	9	attention	attention	attention	0				1	0	2455		0	232	0	0	2	322	99			138				0.6999999999999999556	0					307	337	9	0	cloud	wind	Planet1A.png	Ship1A.png	Mushroom1A.png	0.0413999999999999993	0.0713999999999999913
6.6.1	mac	0	2023-12-01	11:54:59	1	1	1	experiment	1	feedback	410	690	700	580	1	10	9	9	9	attention	attention	attention	0				1	0	2455		0	232	0	0	2	322	99	126.5759999999999934062	1758	113	113	113	0.5987383612894309204	0.6999999999999999556	0					307	337	9	0	cloud	wind	Planet1A.png	Ship1A.png	Mushroom1A.png	0.0338999999999999996	0.1052999999999999908
6.6.1	mac	0	2023-12-01	11:54:59	1	1	1	experiment	1	clock	490	510	406	580	1	10	10	10	10	attention	attention	attention	0				1	0	2455		0	232	0	0	2	322	23			113				0.6999999999999999556	0					307	337	10	0	cloud	wind	Planet1A.png	Ship1A.png	Mushroom1A.png	0.0338999999999999996	0.1052999999999999908
6.6.1	mac	0	2023-12-01	11:54:59	1	1	1	experiment	1	feedback	490	510	700	300	1	11	10	10	10	attention	attention	attention	0				1	0	2455		0	232	0	0	2	322	23	202.0320000000000106866	2806	86	86	86	0.2015733791518894424	0.6999999999999999556	0					307	337	10	0	cloud	wind	Planet1A.png	Ship1A.png	Mushroom1A.png	0.0257999999999999965	0.1310999999999999943
6.6.1	mac	0	2023-12-01	11:54:59	1	1	1	experiment	1	clock	280	650	142	300	1	11	11	11	1	erasure	erasure	attention	1	1			1	1	2455	102	1	232	0	0	2	192	24			86				0.6999999999999999556	0	45	102	117	87	177	207	11	1	cloud	wind	Planet1A.png	Ship1A.png	Mushroom1A.png	0.0257999999999999965	0.1310999999999999943
6.6.1	mac	0	2023-12-01	11:54:59	1	1	1	experiment	1	feedback	280	650	700	450	1	12	11	11	1	erasure	erasure	attention	0	1			1	1	2455	102	1	232	1	0	2	192	24	186.6239999999999952252	2592	69	69	69	0.4633053714556865099	0.6999999999999999556	1	45	102	117	87	177	207	11	1	cloud	wind	Planet1A.png	Ship1A.png	Mushroom1A.png	0.0206999999999999997	0.1517999999999999905
6.6.1	mac	0	2023-12-01	11:54:59	1	1	1	experiment	1	clock	400	630	2309	450	1	12	12	12	2	erasure	erasure	erasure	0	2			1	1	2455	102	1	232	1	0	2	192	81			69				0.6999999999999999556	1	45	102	117	87	177	207	12	1	cloud	wind	Planet1A.png	Ship1A.png	Mushroom1A.png	0.0206999999999999997	0.1517999999999999905
6.6.1	mac	0	2023-12-01	11:54:59	1	1	1	experiment	1	feedback	400	630	700	510	1	13	12	12	2	erasure	erasure	erasure	0	2			1	1	2455	102	1	232	2	0	2	192	81	187.8480000000000131877	2609	44	10	10	0.8171101440249732839	0.6999999999999999556	1	45	102	117	87	177	207	12	1	cloud	wind	Planet1A.png	Ship1A.png	Mushroom1A.png	0.0029999999999999996	0.1547999999999999932
6.6.1	mac	0	2023-12-01	11:54:59	1	1	1	experiment	1	clock	160	530	676	510	1	13	13	13	3	erasure	no erasure	erasure	0	3			1	1	2455	102	0	232		1	1	192	2			44				0.6999999999999999556		13.3943661971830980661	102	117	87	177	207	13	1	cloud	wind	Planet1A.png	Ship1A.png	Mushroom1A.png	0.0029999999999999996	0.1547999999999999932
6.6.1	mac	0	2023-12-01	11:54:59	1	1	1	experiment	1	feedback	160	530	700	530	1	14	13	13	3	erasure	no erasure	erasure	0	3			1	1	2455	102	0	232		1	1	192	2	145.8720000000000140972	2026	4	10	10	0.9630398997019603557	0.6999999999999999556		13.3943661971830980661	102	117	87	177	207	13	1	cloud	wind	Planet1A.png	Ship1A.png	Mushroom1A.png	0.0029999999999999996	0.1577999999999999958
6.6.1	mac	0	2023-12-01	11:54:59	1	1	1	experiment	1	clock	100	620	320	530	1	14	14	14	4	erasure	no erasure	erasure	0	4			1	1	2455	102	0	232		1	0	192	31			4				0.6999999999999999556		23.3098591549295761638	102	117	87	177	207	14	1	cloud	wind	Planet1A.png	Ship1A.png	Mushroom1A.png	0.0029999999999999996	0.1577999999999999958
6.6.1	mac	0	2023-12-01	11:54:59	1	1	1	experiment	1	feedback	100	620	700	460	1	15	14	14	4	erasure	no erasure	erasure	0	4			1	1	2455	102	0	232		1	0	192	31	224.6399999999999863576	3120	29	10	10	0.8783944344330566478	0.6999999999999999556		23.3098591549295761638	102	117	87	177	207	14	1	cloud	wind	Planet1A.png	Ship1A.png	Mushroom1A.png	0.0029999999999999996	0.1607999999999999985
6.6.1	mac	0	2023-12-01	11:54:59	1	1	1	experiment	1	clock	320	700	1565	460	1	15	15	15	5	erasure	erasure	erasure	1	1			1	2	2455	21	1	232	0	0	2	111	74			29				0.6999999999999999556	0	22	21	36	6	96	126	15	1	cloud	wind	Planet1A.png	Ship1A.png	Mushroom1A.png	0.0029999999999999996	0.1607999999999999985
6.6.1	mac	0	2023-12-01	11:54:59	1	1	1	experiment	1	feedback	320	700	700	470	1	16	15	15	5	erasure	erasure	erasure	0	1			1	2	2455	21	1	232	1	0	2	111	74	109.0799999999999982947	1515	1	10	1	0.556652722777019382	0.6999999999999999556	1	22	21	36	6	96	126	15	1	cloud	wind	Planet1A.png	Ship1A.png	Mushroom1A.png	0.0029999999999999996	0.1638000000000000012
6.6.1	mac	0	2023-12-01	11:54:59	1	1	1	experiment	1	clock	310	680	3579	470	1	16	16	16	6	erasure	erasure	erasure	0	2			1	2	2455	21	1	232	1	0	2	111	34			1				0.6999999999999999556	1	22	21	36	6	96	126	16	1	cloud	wind	Planet1A.png	Ship1A.png	Mushroom1A.png	0.0029999999999999996	0.1638000000000000012
6.6.1	mac	0	2023-12-01	11:54:59	1	1	1	experiment	1	feedback	310	680	700	250	1	17	16	16	6	erasure	erasure	erasure	0	2			1	2	2455	21	1	232	2	0	2	111	34	110.0879999999999938609	1529	1	10	10	0.7452617992519544599	0.6999999999999999556	1	22	21	36	6	96	126	16	1	cloud	wind	Planet1A.png	Ship1A.png	Mushroom1A.png	0.0029999999999999996	0.1668000000000000038
6.6.1	mac	0	2023-12-01	11:54:59	1	1	1	experiment	1	clock	250	660	184	250	1	17	17	17	7	erasure	no erasure	erasure	0	3			1	2	2455	21	0	232		1	1	111	62			1				0.6999999999999999556		34.6792452830188722146	21	36	6	96	126	17	1	cloud	wind	Planet1A.png	Ship1A.png	Mushroom1A.png	0.0029999999999999996	0.1668000000000000038
6.6.1	mac	0	2023-12-01	11:54:59	1	1	1	experiment	1	feedback	250	660	700	440	1	18	17	17	7	erasure	no erasure	erasure	0	3			1	2	2455	21	0	232		1	1	111	62	326.4479999999999790816	4534	74	10	10	0.8624739057529889896	0.6999999999999999556		34.6792452830188722146	21	36	6	96	126	17	1	cloud	wind	Planet1A.png	Ship1A.png	Mushroom1A.png	0.0029999999999999996	0.1698000000000000065
6.6.1	mac	0	2023-12-01	11:54:59	1	1	1	experiment	1	clock	210	610	223	440	1	18	18	18	8	erasure	no erasure	erasure	0	4			1	2	2455	21	0	232		1	0	111	57			74				0.6999999999999999556		41.4150943396226409732	21	36	6	96	126	18	1	cloud	wind	Planet1A.png	Ship1A.png	Mushroom1A.png	0.0029999999999999996	0.1698000000000000065
6.6.1	mac	0	2023-12-01	11:54:59	1	1	1	experiment	1	feedback	210	610	700	490	1	19	18	18	8	erasure	no erasure	erasure	0	4			1	2	2455	21	0	232		1	0	111	57	311.2559999999999718057	4323	96	10	10	0.7006432983792952873	0.6999999999999999556		41.4150943396226409732	21	36	6	96	126	18	1	cloud	wind	Planet1A.png	Ship1A.png	Mushroom1A.png	0.0029999999999999996	0.1728000000000000091
6.6.1	mac	0	2023-12-01	11:54:59	1	1	1	experiment	1	clock	420	580	180	490	1	19	19	19	9	erasure	erasure	erasure	1	1			1	3	2455	34	1	232	0	0	2	124	6			96				0.6999999999999999556	0	33	34	49	19	109	139	19	1	cloud	wind	Planet1A.png	Ship1A.png	Mushroom1A.png	0.0029999999999999996	0.1728000000000000091
6.6.1	mac	0	2023-12-01	11:54:59	1	1	1	experiment	1	feedback	420	580	700	590	1	20	19	19	9	erasure	erasure	erasure	0	1			1	3	2455	34	1	232	1	0	2	124	6	124.5600000000000022737	1730	7	10	10	0.984191870080351805	0.6999999999999999556	1	33	34	49	19	109	139	19	1	cloud	wind	Planet1A.png	Ship1A.png	Mushroom1A.png	0.0029999999999999996	0.1758000000000000118
6.6.1	mac	0	2023-12-01	11:54:59	1	1	1	experiment	1	clock	200	590	1496	590	1	20	20	20	10	erasure	erasure	erasure	0	2			1	3	2455	34	1	232	1	0	2	124	79			7				0.6999999999999999556	1	33	34	49	19	109	139	20	1	cloud	wind	Planet1A.png	Ship1A.png	Mushroom1A.png	0.0029999999999999996	0.1758000000000000118
6.6.1	mac	0	2023-12-01	11:54:59	1	1	1	experiment	1	feedback	200	590	700	320	1	21	20	20	10	erasure	erasure	erasure	0	2			1	3	2455	34	1	232	2	0	2	124	79	122.1119999999999947704	1696	7	10	7	0.6554649096577114253	0.6999999999999999556	1	33	34	49	19	109	139	20	1	cloud	wind	Planet1A.png	Ship1A.png	Mushroom1A.png	0.0029999999999999996	0.1788000000000000145
6.6.1	mac	0	2023-12-01	11:54:59	1	1	1	experiment	1	clock	350	600	359	320	1	21	21	21	1	no erasure	no erasure	erasure	0	3			1	3	2455	34	0	232		0	2	124	31			7				0.6999999999999999556		41.9491525423728788269	34	49	19	109	139	21	1	cloud	wind	Planet1A.png	Ship1A.png	Mushroom1A.png	0.0029999999999999996	0.1788000000000000145
6.6.1	mac	0	2023-12-01	11:54:59	1	1	1	experiment	1	feedback	350	600	700	430	1	22	21	21	1	no erasure	no erasure	erasure	0	3			1	3	2455	34	0	232		0	2	124	31	227.4480000000000075033	3159	122	122	122	0.301572593930543531	0.6999999999999999556		41.9491525423728788269	34	49	19	109	139	21	1	cloud	wind	Planet1A.png	Ship1A.png	Mushroom1A.png	0.0365999999999999936	0.2154000000000000081
6.6.1	mac	0	2023-12-01	11:54:59	1	1	1	experiment	1	clock	330	680	185	430	1	22	22	22	2	no erasure	no erasure	no erasure	0	4			1	3	2455	34	0	232		0	2	124	69			122				0.6999999999999999556		46.2881355932203391035	34	49	19	109	139	22	1	cloud	wind	Planet1A.png	Ship1A.png	Mushroom1A.png	0.0365999999999999936	0.2154000000000000081
6.6.1	mac	0	2023-12-01	11:54:59	1	1	1	experiment	1	feedback	330	680	700	420	1	23	22	22	2	no erasure	no erasure	no erasure	0	4			1	3	2455	34	0	232		0	2	124	69	351.7200000000000272848	4885	109	109	109	0.1874579317372892795	0.6999999999999999556		46.2881355932203391035	34	49	19	109	139	22	1	cloud	wind	Planet1A.png	Ship1A.png	Mushroom1A.png	0.0326999999999999999	0.248100000000000015
6.6.1	mac	0	2023-12-01	11:54:59	1	1	1	experiment	1	clock	130	660	360	420	1	23	23	23	3	no erasure	no erasure	no erasure	0	5			1	3	2455	34	0	232		0	2	124	89			109				0.6999999999999999556		50.8983050847457647592	34	49	19	109	139	23	1	cloud	wind	Planet1A.png	Ship1A.png	Mushroom1A.png	0.0326999999999999999	0.248100000000000015
