build	computer.platform	computer.touch	date	time	subject	group	sessionid	blockcode	blocknum	trialcode	list.ITI.currentvalue	list.preClockFreeze.currentvalue	latency	list.ISI.currentvalue	block	trialCount	trial	run_trial	block_trial	block_type	trial_type	last_block_type	generate_new_erasure	trial_since_erasure_gen	att_index	era_index	x_final	y_final	ITI_index	seed	list.era_loc.currentvalue	has_erasure	list.att_loc.currentvalue	n_clicks	n_clicks_era_only	timeout_block	timeouts_remain	stim_center_deg	startPos	pos_shifted	rt_shifted	mag	inc_rg	inc	rng	freq	choose_stim	erasure_value	current_erasure	curr_min	list.spread.nextvalue	curr_mean	curr_max	new_mean	to_h	to_l	smooth_kernel2	rt_index	erasure_RT	right_index	left_index	stim_left_deg	stim_right_deg	scanner_sync	trial_start	freeze_start	ISI_start	feedback_start	ITI_start	erasure_blocks	attentional_control	local_uncertainty	picture.planet.item.1	picture.animatedCircle.item.1	picture.feedback2.items.1	picture.stim.item.1	Earnings	totalEarnings
6.6.1	mac	0	2024-02-06	16:49:24	1	1	1	presscont	1	reminder1			635		0		0	0					1		0	0				5094						0	2		0	0	0	0	0	0		0.6999999999999999556																								0	wind	cloud	blank.png	blank.png	blank.png	fog0.png		0
6.6.1	mac	0	2024-02-06	16:49:24	1	1	1	presscont	1	reminder2			163		0		0	0					1		0	0				5094						0	2		0	0	0	0	0	0		0.6999999999999999556																								0	wind	cloud	blank.png	blank.png	blank.png	fog0.png		0
6.6.1	mac	0	2024-02-06	16:49:24	1	1	1	presscont	1	scanner_sync			653		0		0	0					1		0	0				5094						0	2		0	0	0	0	0	0		0.6999999999999999556																		1962						0	wind	cloud	blank.png	blank.png	blank.png	fog0.png		0
6.6.1	mac	0	2024-02-06	16:49:24	1	1	1	presscont	1	countdown			1000		0		0	0					1		0	0				5094						0	2		0	0	0	0	0	0		0.6999999999999999556																		1962						0	wind	cloud	blank.png	blank.png	blank.png	fog0.png		0
6.6.1	mac	0	2024-02-06	16:49:24	1	1	1	experiment	2	clock	416	549	2543		1	1	1	1	1	erasure	erasure		1	1	0	1				5094	146	1		0	0	0	2	236	89			0				0.6999999999999999556	0	39	39	1		nan	201						146	161	131	221	251	1962	5992	5411			4976	1	wind	cloud	Planet1A.png	Ship1A.png	blank.png	fog0.png		0
6.6.1	mac	0	2024-02-06	16:49:24	1	1	1	experiment	2	feedback	416	549	699	416	1	2	1	1	1	erasure	erasure		0	1	0	1				5094	146	1		1	1	0	2	236	89	233.4960000000000093223	3243	48.21600000000000108	10	10	0.9185578827556590831	0.6999999999999999556	1	39	39	1		nan	201					143	146	161	131	221	251	1962	5992	5411	8586	9018	4976	1	wind	cloud	Planet1A.png	Ship1A.png	Mushroom1A.png	fog0.png	0.0029999999999999996	0.0029999999999999996
6.6.1	mac	0	2024-02-06	16:49:24	1	1	1	experiment	2	clock	466	532	929	416	1	2	2	2	2	erasure	erasure	erasure	0	2	0	1				5094	146	1		1	1	0	2	236	21			48.21600000000000108				0.6999999999999999556	1	39	39	1		67.8340740740740812953	201	70.6055555555555542924	201	1		143	146	161	131	221	251	1962	10757	10197	8586	9018	9722	1	wind	cloud	Planet1A.png	Ship1A.png	Mushroom1A.png	fog0.png	0.0029999999999999996	0.0029999999999999996
6.6.1	mac	0	2024-02-06	16:49:24	1	1	1	experiment	2	feedback	466	532	699	482	1	3	2	2	2	erasure	erasure	erasure	0	2	0	1				5094	146	1		2	2	0	2	236	21	232.4879999999999995453	3229	53.1226666666666602623	53	53.1226666666666602623	0.2254492126464492652	0.6999999999999999556	1	39	39	1		67.8340740740740812953	201	70.6055555555555542924	201	1		142	146	161	131	221	251	1962	10757	10197	11738	12235	9722	1	wind	cloud	Planet1A.png	Ship1A.png	Mushroom1A.png	fog0.png	0.0158999999999999975	0.0188999999999999967
6.6.1	mac	0	2024-02-06	16:49:24	1	1	1	experiment	2	clock	299	682	290	482	1	3	3	3	3	erasure	no erasure	erasure	0	3	0	1				5094	146	0			0	1	1	236	100			53.1226666666666602623				0.6999999999999999556		39	39	1		67.7327777777777555457	201	70.6055555555555542924	201	1		142	146	161	131	221	251	1962	13941	13245	11738	12235	12937	1	wind	cloud	Planet1A.png	Ship1A.png	Mushroom1A.png	blank.png	0.0158999999999999975	0.0188999999999999967
6.6.1	mac	0	2024-02-06	16:49:24	1	1	1	experiment	2	feedback	299	682	699	399	1	4	3	3	3	erasure	no erasure	erasure	0	3	0	1				5094	146	0			0	1	1	236	100	110.8799999999999954525	1540	34	34	34	0.1543988748813045486	0.6999999999999999556		39	39	1		67.7327777777777555457	201	70.6055555555555542924	201	1		21	146	161	131	221	251	1962	13941	13245	14282	14703	12937	1	wind	cloud	Planet1A.png	Ship1A.png	Mushroom1A.png	blank.png	0.010199999999999999	0.0290999999999999939
6.6.1	mac	0	2024-02-06	16:49:24	1	1	1	experiment	2	clock	316	582	217	399	1	4	4	4	4	erasure	no erasure	erasure	0	4	0	1				5094	146	0			0	1	0	236	59			34				0.6999999999999999556		39	39	1		67.8340740740740812953	201	70.6055555555555542924	201	1		21	146	161	131	221	251	1962	16327	15729	14282	14703	15405	1	wind	cloud	Planet1A.png	Ship1A.png	Mushroom1A.png	blank.png	0.010199999999999999	0.0290999999999999939
6.6.1	mac	0	2024-02-06	16:49:24	1	1	1	experiment	2	feedback	316	582	699	466	1	5	4	4	4	erasure	no erasure	erasure	0	4	0	1				5094	146	0			0	1	0	236	59	318.0240000000000009095	4417	54	54	54	0.0745214417284637276	0.6999999999999999556		39	39	1		67.8340740740740812953	201	70.6055555555555542924	201	1		228	146	161	131	221	251	1962	16327	15729	16594	17087	15405	1	wind	cloud	Planet1A.png	Ship1A.png	Mushroom1A.png	blank.png	0.0161999999999999991	0.0452999999999999931
6.6.1	mac	0	2024-02-06	16:49:24	1	1	1	experiment	2	clock	282	665	4191	466	1	5	5	5	5	erasure	erasure	erasure	1	1	0	2				5094	258	1		0	0	0	2	348	87			54				0.6999999999999999556	0	65	65	1		67.9298148148148186465	201	70.6055555555555542924	201	1		228	258	273	243	333	3	1962	18759	18078	16594	17087	17788	1	wind	cloud	Planet1A.png	Ship1A.png	Mushroom1A.png	fog0.png	0.0161999999999999991	0.0452999999999999931
6.6.1	mac	0	2024-02-06	16:49:24	1	1	1	experiment	2	feedback	282	665	699	566	1	6	5	5	5	erasure	erasure	erasure	0	1	0	2				5094	258	1		1	1	0	2	348	87	344.951999999999998181	4791	65.3599999999999994316	10	10	0.9967508928377066812	0.6999999999999999556	1	65	65	1		67.9298148148148186465	201	70.6055555555555542924	201	1		255	258	273	243	333	3	1962	18759	18078	23002	23588	17788	1	wind	cloud	Planet1A.png	Ship1A.png	Mushroom1A.png	fog0.png	0.0029999999999999996	0.0482999999999999957
6.6.1	mac	0	2024-02-06	16:49:24	1	1	1	experiment	2	clock	199	699	2507	566	1	6	6	6	6	erasure	erasure	erasure	0	2	0	2				5094	258	1		1	1	0	2	348	20			65.3599999999999994316				0.6999999999999999556	1	65	65	1		72.012962962962973279	201	70.6055555555555542924	201	1		255	258	273	243	333	3	1962	25212	24497	23002	23588	24289	1	wind	cloud	Planet1A.png	Ship1A.png	Mushroom1A.png	fog0.png	0.0029999999999999996	0.0482999999999999957
6.6.1	mac	0	2024-02-06	16:49:24	1	1	1	experiment	2	feedback	199	699	699	532	1	7	6	6	6	erasure	erasure	erasure	0	2	0	2				5094	258	1		2	2	0	2	348	20	342.5040000000000190994	4757	64.1851851851851762376	64	64.1851851851851762376	0.0437596028306893106	0.6999999999999999556	1	65	65	1		72.012962962962973279	201	70.6055555555555542924	201	1		253	258	273	243	333	3	1962	25212	24497	27770	28323	24289	1	wind	cloud	Planet1A.png	Ship1A.png	Mushroom1A.png	fog0.png	0.0191999999999999983	0.0674999999999999906
6.6.1	mac	0	2024-02-06	16:49:24	1	1	1	experiment	2	clock	432	499	723	532	1	7	7	7	7	erasure	no erasure	erasure	0	3	0	2				5094	258	0			0	1	1	348	7			64.1851851851851762376				0.6999999999999999556		65	65	1		72.0514814814814741339	201	70.6055555555555542924	201	1		253	258	273	243	333	3	1962	29981	29465	27770	28323	29023	1	wind	cloud	Planet1A.png	Ship1A.png	Mushroom1A.png	blank.png	0.0191999999999999983	0.0674999999999999906
6.6.1	mac	0	2024-02-06	16:49:24	1	1	1	experiment	2	feedback	432	499	699	599	1	8	7	7	7	erasure	no erasure	erasure	0	3	0	2				5094	258	0			0	1	1	348	7	167.2560000000000002274	2323	174	174	174	0.2248636771051361338	0.6999999999999999556		65	65	1		72.0514814814814741339	201	70.6055555555555542924	201	1		77	258	273	243	333	3	1962	29981	29465	30754	31374	29023	1	wind	cloud	Planet1A.png	Ship1A.png	Mushroom1A.png	blank.png	0.0521999999999999964	0.119699999999999987
6.6.1	mac	0	2024-02-06	16:49:24	1	1	1	experiment	2	clock	132	516	1107	599	1	8	8	8	8	erasure	no erasure	erasure	0	4	0	2				5094	258	0			0	1	0	348	27			174				0.6999999999999999556		65	65	1		71.9387037037037231357	201	70.6055555555555542924	201	1		77	258	273	243	333	3	1962	32749	32217	30754	31374	32076	1	wind	cloud	Planet1A.png	Ship1A.png	Mushroom1A.png	blank.png	0.0521999999999999964	0.119699999999999987
6.6.1	mac	0	2024-02-06	16:49:24	1	1	1	experiment	2	feedback	132	516	699	549	1	9	8	8	8	erasure	no erasure	erasure	0	4	0	2				5094	258	0			0	1	0	348	27	266.903999999999996362	3707	63	10	10	0.7452465968079041714	0.6999999999999999556		65	65	1		71.9387037037037231357	201	70.6055555555555542924	201	1		177	258	273	243	333	3	1962	32749	32217	33906	34475	32076	1	wind	cloud	Planet1A.png	Ship1A.png	Mushroom1A.png	blank.png	0.0029999999999999996	0.1226999999999999896
6.6.1	mac	0	2024-02-06	16:49:24	1	1	1	experiment	2	clock	182	649	1423	549	1	9	9	9	9	erasure	erasure	erasure	1	1	0	3				5094	280	1		0	0	0	2	10	13			63				0.6999999999999999556	0	46	46	1		71.9914814814815002819	201	70.6055555555555542924	201	1		177	280	295	265	355	25	1962	36033	35366	33906	34475	35175	1	wind	cloud	Planet1A.png	Ship1A.png	Mushroom1A.png	fog0.png	0.0029999999999999996	0.1226999999999999896
6.6.1	mac	0	2024-02-06	16:49:24	1	1	1	experiment	2	feedback	182	649	699	349	1	10	9	9	9	erasure	erasure	erasure	0	1	0	3				5094	280	1		0	0	0	2	10	13	239.2560000000000002274	3323	91	91	91	0.31451475441328125	0.6999999999999999556	0	46	46	1		71.9914814814815002819	201	70.6055555555555542924	201	1		149	280	295	265	355	25	1962	36033	35366	37506	37876	35175	1	wind	cloud	Planet1A.png	Ship1A.png	Mushroom1A.png	fog0.png	0.0272999999999999979	0.1499999999999999944
6.6.1	mac	0	2024-02-06	16:49:24	1	1	1	experiment	2	clock	99	599	1563	349	1	10	10	10	10	erasure	erasure	erasure	0	2	0	3				5094	280	1		0	0	0	2	10	1			91				0.6999999999999999556	0	46	46	1		71.7177777777777976098	201	70.6055555555555542924	201	1		149	280	295	265	355	25	1962	39300	38684	37506	37876	38576	1	wind	cloud	Planet1A.png	Ship1A.png	Mushroom1A.png	fog0.png	0.0272999999999999979	0.1499999999999999944
6.6.1	mac	0	2024-02-06	16:49:24	1	1	1	experiment	2	feedback	99	599	699	332	1	11	10	10	10	erasure	erasure	erasure	0	2	0	3				5094	280	1		0	0	0	2	10	1	206.1359999999999956799	2863	176	176	176	0.2375610024290068512	0.6999999999999999556	0	46	46	1		71.7177777777777976098	201	70.6055555555555542924	201	1		116	280	295	265	355	25	1962	39300	38684	40914	41260	38576	1	wind	cloud	Planet1A.png	Ship1A.png	Mushroom1A.png	fog0.png	0.0527999999999999928	0.2027999999999999803
6.6.1	mac	0	2024-02-06	16:49:24	1	1	1	experiment	2	clock	249	615	908	332	1	11	11	11	1	attention	attention	erasure	0	3	1	3				5094	280	0	233	0	0	0	2	323	5			176				0.6999999999999999556	0	46	46	1		71.7177777777777976098	201	70.6055555555555542924	201	1		116	280	295	265	308	338	1962	42851	42219	40914	41260	41961	1	wind	cloud	Planet1A.png	Ship1A.png	Mushroom1A.png	wind0.png	0.0527999999999999928	0.2027999999999999803
6.6.1	mac	0	2024-02-06	16:49:24	1	1	1	experiment	2	feedback	249	615	699	216	1	12	11	11	1	attention	attention	erasure	0	3	1	3				5094	280	0	233	0	0	0	2	323	5	173.3760000000000047748	2408	189	189	189	0.2086533678715707107	0.6999999999999999556	0	46	46	1		71.7177777777777976098	201	70.6055555555555542924	201	1		83	280	295	265	308	338	1962	42851	42219	43810	44044	41961	1	wind	cloud	Planet1A.png	Ship1A.png	Mushroom1A.png	wind0.png	0.0566999999999999935	0.2594999999999999529
6.6.1	mac	0	2024-02-06	16:49:24	1	1	1	experiment	2	clock	482	566	925	216	1	12	12	12	2	attention	attention	attention	0	4	1	3				5094	280	0	233	0	0	0	2	323	58			189				0.6999999999999999556	0	46	46	1		71.7562962962963126756	201	70.6055555555555542924	201	1		83	280	295	265	308	338	1962	45819	45236	43810	44044	44745	1	wind	cloud	Planet1A.png	Ship1A.png	Mushroom1A.png	wind0.png	0.0566999999999999935	0.2594999999999999529
6.6.1	mac	0	2024-02-06	16:49:24	1	1	1	experiment	2	feedback	482	566	699	432	1	13	12	12	2	attention	attention	attention	0	4	1	3				5094	280	0	233	0	0	0	2	323	58	5.4000000000000003553	75	45.8333333333333285964	10	10	0.838297425265958851	0.6999999999999999556	0	46	46	1		71.7562962962963126756	201	70.6055555555555542924	201	1		275	280	295	265	308	338	1962	45819	45236	46794	47245	44745	1	wind	cloud	Planet1A.png	Ship1A.png	Mushroom1A.png	wind0.png	0.0029999999999999996	0.2624999999999999556
6.6.1	mac	0	2024-02-06	16:49:24	1	1	1	experiment	2	clock	366	632	460	432	1	13	13	13	3	attention	attention	attention	0	5	1	3				5094	280	0	233	0	0	0	2	323	54			45.8333333333333285964				0.6999999999999999556	0	46	46	1		71.7777777777777856727	201	70.6055555555555542924	201	1		275	280	295	265	308	338	1962	49019	48361	46794	47245	47987	1	wind	cloud	Planet1A.png	Ship1A.png	Mushroom1A.png	wind0.png	0.0029999999999999996	0.2624999999999999556
6.6.1	mac	0	2024-02-06	16:49:24	1	1	1	experiment	2	feedback	366	632	699	282	1	14	13	13	3	attention	attention	attention	0	5	1	3				5094	280	0	233	1	0	0	2	323	54	317.5199999999999818101	4410	55	55	55	0.0567358690446093383	0.6999999999999999556	1	46	46	1		71.7777777777777856727	201	70.6055555555555542924	201	1		228	280	295	265	308	338	1962	49019	48361	49530	49829	47987	1	wind	cloud	Planet1A.png	Ship1A.png	Mushroom1A.png	wind0.png	0.0164999999999999973	0.2789999999999999702
6.6.1	mac	0	2024-02-06	16:49:24	1	1	1	experiment	2	clock	499	566	1660	282	1	14	14	14	4	attention	attention	attention	0	6	1	3				5094	280	0	233	0	0	0	2	323	20			55				0.6999999999999999556	0	42.8500000000000014211	46	1		71.7562962962963126756	201	65.772222222222225696	187	1		228	280	295	265	308	338	1962	51621	51040	49530	49829	50531	1	wind	cloud	Planet1A.png	Ship1A.png	Mushroom1A.png	wind0.png	0.0164999999999999973	0.2789999999999999702
6.6.1	mac	0	2024-02-06	16:49:24	1	1	1	experiment	2	feedback	499	566	699	299	1	15	14	14	4	attention	attention	attention	0	6	1	3				5094	280	0	233	0	0	0	2	323	20	281.5199999999999818101	3910	56	56	56	0.4605376341986790467	0.6999999999999999556	0	42.8500000000000014211	46	1		71.7562962962963126756	201	65.772222222222225696	187	1		192	280	295	265	308	338	1962	51621	51040	53330	53647	50531	1	wind	cloud	Planet1A.png	Ship1A.png	Mushroom1A.png	wind0.png	0.016799999999999999	0.2957999999999999519
6.6.1	mac	0	2024-02-06	16:49:24	1	1	1	experiment	2	clock	232	499	1887	299	1	15	15	15	5	attention	attention	attention	0	7	1	3				5094	280	0	233	0	0	0	2	323	80			56				0.6999999999999999556	0	39.7000000000000028422	46	1		66.8496018518518582141	187	60.9527777777777757251	173	1		192	280	295	265	308	338	1962	55105	54589	53330	53647	54348	1	wind	cloud	Planet1A.png	Ship1A.png	Mushroom1A.png	wind0.png	0.016799999999999999	0.2957999999999999519
6.6.1	mac	0	2024-02-06	16:49:24	1	1	1	experiment	2	feedback	232	499	699	449	1	16	15	15	5	attention	attention	attention	0	7	1	3				5094	280	0	233	0	0	0	2	323	80	153.8640000000000043201	2137	123	10	10	0.9360995648745679132	0.6999999999999999556	0	39.7000000000000028422	46	1		66.8496018518518582141	187	60.9527777777777757251	173	1		64	280	295	265	308	338	1962	55105	54589	57042	57514	54348	1	wind	cloud	Planet1A.png	Ship1A.png	Mushroom1A.png	wind0.png	0.0029999999999999996	0.2987999999999999545
6.6.1	mac	0	2024-02-06	16:49:24	1	1	1	experiment	2	ITI	449	499	228	449	1	16	16	16	6	attention	attention	attention	0	8	1	3				5094	280	0	233	0	0	0	2	323	80			123				0.6999999999999999556	0	36.5500000000000042633	46	1		61.9699444444444367264	173	56.1499999999999985789	159	1		64	280	295	265	308	338	1962	55105	54589	57042	57514	58215	1	wind	cloud	Planet1A.png	Ship1A.png	Mushroom1A.png	wind0.png	0.0029999999999999996	0.2987999999999999545
