build,computer.platform,computer.touch,date,time,subject,group,sessionid,blockcode,blocknum,trialcode,list.ITI.currentvalue,list.preClockFreeze.currentvalue,latency,list.ISI.currentvalue,block,trialCount,trial,run_trial,block_trial,block_type,trial_type,last_block_type,generate_new_erasure,trial_since_erasure_gen,att_index,era_index,x_final,y_final,ITI_index,seed,list.era_loc.currentvalue,has_erasure,list.att_loc.currentvalue,n_clicks,n_clicks_era_only,timeout_block,timeouts_remain,stim_center_deg,startPos,pos_shifted,rt_shifted,mag,inc_rg,inc,rng,freq,choose_stim,erasure_value,current_erasure,curr_min,list.spread.nextvalue,curr_mean,curr_max,new_mean,to_h,to_l,smooth_kernel2,rt_index,erasure_RT,right_index,left_index,stim_left_deg,stim_right_deg,scanner_sync,trial_start,freeze_start,ISI_start,feedback_start,ITI_start,erasure_blocks,attentional_control,local_uncertainty,picture.planet.item.1,picture.animatedCircle.item.1,picture.feedback2.items.1,picture.stim.item.1,Earnings,totalEarnings
6.6.1,mac,0,2/6/24,16:43:42,1,1,1,presscont,1,reminder1,,,624,,0,,0,0,,,,,1,,0,0,,,,5094,,,,,,0,2,,0,0,0,0,0,0,,0.7,,,,,,,,,,,,,,,,,,,,,,,,0,wind,cloud,blank.png,blank.png,blank.png,fog0.png,,0
6.6.1,mac,0,2/6/24,16:43:42,1,1,1,presscont,1,reminder2,,,282,,0,,0,0,,,,,1,,0,0,,,,5094,,,,,,0,2,,0,0,0,0,0,0,,0.7,,,,,,,,,,,,,,,,,,,,,,,,0,wind,cloud,blank.png,blank.png,blank.png,fog0.png,,0
6.6.1,mac,0,2/6/24,16:43:42,1,1,1,presscont,1,scanner_sync,,,1274,,0,,0,0,,,,,1,,0,0,,,,5094,,,,,,0,2,,0,0,0,0,0,0,,0.7,,,,,,,,,,,,,,,,,,4531,,,,,,0,wind,cloud,blank.png,blank.png,blank.png,fog0.png,,0
6.6.1,mac,0,2/6/24,16:43:42,1,1,1,presscont,1,countdown,,,1000,,0,,0,0,,,,,1,,0,0,,,,5094,,,,,,0,2,,0,0,0,0,0,0,,0.7,,,,,,,,,,,,,,,,,,4531,,,,,,0,wind,cloud,blank.png,blank.png,blank.png,fog0.png,,0
6.6.1,mac,0,2/6/24,16:43:42,1,1,1,experiment,2,clock,482,665,1699,,1,1,1,1,1,erasure,erasure,,1,1,0,1,,,,5094,146,1,,0,0,0,2,236,81,,,0,,,,0.7,0,39,39,1,,nan,201,,,,,,146,161,131,221,251,4531,8738,8042,,,7539,1,wind,cloud,Planet1A.png,Ship1A.png,blank.png,fog0.png,,0
6.6.1,mac,0,2/6/24,16:43:42,1,1,1,experiment,2,feedback,482,665,699,566,1,2,1,1,1,erasure,erasure,,0,1,0,1,,,,5094,146,1,,0,0,0,2,236,81,143.928,1999,112,112,112,0.380665197,0.7,0,39,39,1,,nan,201,,,,,54,146,161,131,221,251,4531,8738,8042,10475,11066,7539,1,wind,cloud,Planet1A.png,Ship1A.png,Mushroom1A.png,fog0.png,0.0336,0.0336
6.6.1,mac,0,2/6/24,16:43:42,1,1,1,experiment,2,clock,432,649,1542,566,1,2,2,2,2,erasure,erasure,erasure,0,2,0,1,,,,5094,146,1,,0,0,0,2,236,35,,,112,,,,0.7,0,39,39,1,,67.83407407,201,70.60555556,201,1,,54,146,161,131,221,251,4531,12874,12210,10475,11066,11770,1,wind,cloud,Planet1A.png,Ship1A.png,Mushroom1A.png,fog0.png,0.0336,0.0336
6.6.1,mac,0,2/6/24,16:43:42,1,1,1,experiment,2,feedback,432,649,699,299,1,3,2,2,2,erasure,erasure,erasure,0,2,0,1,,,,5094,146,1,,0,0,0,2,236,35,327.024,4542,51,51,51,0.579606801,0.7,0,39,39,1,,67.83407407,201,70.60555556,201,1,,237,146,161,131,221,251,4531,12874,12210,14451,14767,11770,1,wind,cloud,Planet1A.png,Ship1A.png,Mushroom1A.png,fog0.png,0.0153,0.0489
6.6.1,mac,0,2/6/24,16:43:42,1,1,1,experiment,2,clock,349,532,2017,299,1,3,3,3,3,erasure,erasure,erasure,0,3,0,1,,,,5094,146,1,,0,0,0,2,236,48,,,51,,,,0.7,0,39,39,1,,67.73277778,201,70.60555556,201,1,,237,146,161,131,221,251,4531,16374,15824,14451,14767,15468,1,wind,cloud,Planet1A.png,Ship1A.png,Mushroom1A.png,fog0.png,0.0153,0.0489
6.6.1,mac,0,2/6/24,16:43:42,1,1,1,experiment,2,feedback,349,532,699,416,1,4,3,3,3,erasure,erasure,erasure,0,3,0,1,,,,5094,146,1,,0,0,0,2,236,48,48.024,667,4,10,4,0.222934217,0.7,0,39,39,1,,67.73277778,201,70.60555556,201,1,,318,146,161,131,221,251,4531,16374,15824,18435,18885,15468,1,wind,cloud,Planet1A.png,Ship1A.png,Mushroom1A.png,fog0.png,0.003,0.0519
6.6.1,mac,0,2/6/24,16:43:42,1,1,1,experiment,2,clock,466,516,1832,416,1,4,4,4,4,erasure,erasure,erasure,0,4,0,1,,,,5094,146,1,,0,0,0,2,236,37,,,4,,,,0.7,0,39,39,1,,67.83407407,201,70.60555556,201,1,,318,146,161,131,221,251,4531,20593,20061,18435,18885,19586,1,wind,cloud,Planet1A.png,Ship1A.png,Mushroom1A.png,fog0.png,0.003,0.0519
6.6.1,mac,0,2/6/24,16:43:42,1,1,1,experiment,2,feedback,466,516,699,316,1,5,4,4,4,erasure,erasure,erasure,0,4,0,1,,,,5094,146,1,,0,0,0,2,236,37,355.104,4932,33,33,33,0.110825748,0.7,0,39,39,1,,67.83407407,201,70.60555556,201,1,,265,146,161,131,221,251,4531,20593,20061,22459,22803,19586,1,wind,cloud,Planet1A.png,Ship1A.png,Mushroom1A.png,fog0.png,0.0099,0.0618
6.6.1,mac,0,2/6/24,16:43:42,1,1,1,experiment,2,clock,216,582,2593,316,1,5,5,5,5,erasure,erasure,erasure,0,5,0,1,,,,5094,146,1,,0,0,0,2,236,98,,,33,,,,0.7,0,39,39,1,,67.92981481,201,70.60555556,201,1,,265,146,161,131,221,251,4531,24327,23729,22459,22803,23504,1,wind,cloud,Planet1A.png,Ship1A.png,Mushroom1A.png,fog0.png,0.0099,0.0618
6.6.1,mac,0,2/6/24,16:43:42,1,1,1,experiment,2,feedback,216,582,699,582,1,6,5,5,5,erasure,erasure,erasure,0,5,0,1,,,,5094,146,1,,0,0,0,2,236,98,269.496,3743,62,62,62,0.565798914,0.7,0,39,39,1,,67.92981481,201,70.60555556,201,1,,179,146,161,131,221,251,4531,24327,23729,26955,27553,23504,1,wind,cloud,Planet1A.png,Ship1A.png,Mushroom1A.png,fog0.png,0.0186,0.0804
6.6.1,mac,0,2/6/24,16:43:42,1,1,1,experiment,2,clock,282,599,2367,582,1,6,6,6,6,erasure,erasure,erasure,0,6,0,1,,,,5094,146,1,,0,0,0,2,236,21,,,62,,,,0.7,0,39,39,1,,67.83407407,201,70.60555556,201,1,,179,146,161,131,221,251,4531,29161,28544,26955,27553,28255,1,wind,cloud,Planet1A.png,Ship1A.png,Mushroom1A.png,fog0.png,0.0186,0.0804
6.6.1,mac,0,2/6/24,16:43:42,1,1,1,experiment,2,feedback,282,599,699,249,1,7,6,6,6,erasure,erasure,erasure,0,6,0,1,,,,5094,146,1,,0,0,0,2,236,21,336.024,4667,45,10,10,0.894738346,0.7,0,39,39,1,,67.83407407,201,70.60555556,201,1,,246,146,161,131,221,251,4531,29161,28544,31563,31838,28255,1,wind,cloud,Planet1A.png,Ship1A.png,Mushroom1A.png,fog0.png,0.003,0.0834
6.6.1,mac,0,2/6/24,16:43:42,1,1,1,experiment,2,clock,449,682,2304,249,1,7,7,7,7,erasure,erasure,erasure,0,7,0,1,,,,5094,146,1,,0,0,0,2,236,32,,,45,,,,0.7,0,39,39,1,,67.92981481,201,70.60555556,201,1,,246,146,161,131,221,251,4531,33695,32997,31563,31838,32539,1,wind,cloud,Planet1A.png,Ship1A.png,Mushroom1A.png,fog0.png,0.003,0.0834
6.6.1,mac,0,2/6/24,16:43:42,1,1,1,experiment,2,feedback,449,682,699,599,1,8,7,7,7,erasure,erasure,erasure,0,7,0,1,,,,5094,146,1,,0,0,0,2,236,32,11.088,154,24,24,24,0.670426792,0.7,0,39,39,1,,67.92981481,201,70.60555556,201,1,,281,146,161,131,221,251,4531,33695,32997,36034,36656,32539,1,wind,cloud,Planet1A.png,Ship1A.png,Mushroom1A.png,fog0.png,0.0072,0.0906
6.6.1,mac,0,2/6/24,16:43:42,1,1,1,experiment,2,clock,366,699,4281,599,1,8,8,8,8,erasure,erasure,erasure,0,8,0,1,,,,5094,146,1,,0,0,0,2,236,54,,,24,,,,0.7,0,39,39,1,,67.62592593,201,70.60555556,201,1,,281,146,161,131,221,251,4531,38448,37733,36034,36656,37358,1,wind,cloud,Planet1A.png,Ship1A.png,Mushroom1A.png,fog0.png,0.0072,0.0906
6.6.1,mac,0,2/6/24,16:43:42,1,1,1,experiment,2,feedback,366,699,699,332,1,9,8,8,8,erasure,erasure,erasure,0,8,0,1,,,,5094,146,1,,1,1,0,2,236,54,232.632,3231,48.528,48,48.528,0.277502327,0.7,1,39,39,1,,67.62592593,201,70.60555556,201,1,,143,146,161,131,221,251,4531,38448,37733,42762,43115,37358,1,wind,cloud,Planet1A.png,Ship1A.png,Mushroom1A.png,fog0.png,0.0144,0.105
6.6.1,mac,0,2/6/24,16:43:42,1,1,1,experiment,2,clock,249,566,2998,332,1,9,9,9,9,erasure,erasure,erasure,0,9,0,1,,,,5094,146,1,,1,1,0,2,236,80,,,48.528,,,,0.7,1,39,39,1,,67.73277778,201,70.60555556,201,1,,143,146,161,131,221,251,4531,44667,44076,42762,43115,43817,1,wind,cloud,Planet1A.png,Ship1A.png,Mushroom1A.png,fog0.png,0.0144,0.105
6.6.1,mac,0,2/6/24,16:43:42,1,1,1,experiment,2,feedback,249,566,699,216,1,10,9,9,9,erasure,erasure,erasure,0,9,0,1,,,,5094,146,1,,2,2,0,2,236,80,233.856,3248,44.78962963,45,44.78962963,0.571785053,0.7,1,39,39,1,,67.73277778,201,70.60555556,201,1,,144,146,161,131,221,251,4531,44667,44076,47699,47943,43817,1,wind,cloud,Planet1A.png,Ship1A.png,Mushroom1A.png,fog0.png,0.0135,0.1185
6.6.1,mac,0,2/6/24,16:43:42,1,1,1,experiment,2,clock,399,632,268,216,1,10,10,10,10,erasure,no erasure,erasure,0,10,0,1,,,,5094,146,0,,,0,1,1,236,37,,,44.78962963,,,,0.7,,39,39,1,,67.62592593,201,70.60555556,201,1,,144,146,161,131,221,251,4531,49700,49052,47699,47943,48645,1,wind,cloud,Planet1A.png,Ship1A.png,Mushroom1A.png,blank.png,0.0135,0.1185
6.6.1,mac,0,2/6/24,16:43:42,1,1,1,experiment,2,feedback,399,632,699,482,1,11,10,10,10,erasure,no erasure,erasure,0,10,0,1,,,,5094,146,0,,,0,1,1,236,37,242.496,3368,40.12,10,10,0.907664314,0.7,,39,39,1,,67.62592593,201,70.60555556,201,1,,152,146,161,131,221,251,4531,49700,49052,50003,50509,48645,1,wind,cloud,Planet1A.png,Ship1A.png,Mushroom1A.png,blank.png,0.003,0.1215
6.6.1,mac,0,2/6/24,16:43:42,1,1,1,experiment,2,clock,499,499,678,482,1,11,11,11,1,attention,attention,erasure,0,11,1,1,,,,5094,146,0,233,0,0,0,1,323,34,,,40.12,,,,0.7,0,39,39,1,,67.62592593,201,70.60555556,201,1,,152,146,161,131,308,338,4531,52218,51713,50003,50509,51210,1,wind,cloud,Planet1A.png,Ship1A.png,Mushroom1A.png,wind0.png,0.003,0.1215
6.6.1,mac,0,2/6/24,16:43:42,1,1,1,experiment,2,feedback,499,499,699,266,1,12,11,11,1,attention,attention,erasure,0,11,1,1,,,,5094,146,0,233,0,0,0,1,323,34,261.216,3628,65,65,65,0.050601285,0.7,0,39,39,1,,67.62592593,201,70.60555556,201,1,,171,146,161,131,308,338,4531,52218,51713,52930,53211,51210,1,wind,cloud,Planet1A.png,Ship1A.png,Mushroom1A.png,wind0.png,0.0195,0.141
6.6.1,mac,0,2/6/24,16:43:42,1,1,1,experiment,2,clock,116,615,85,266,1,12,12,12,2,attention,attention,attention,0,12,1,1,,,,5094,146,0,233,0,0,0,1,323,51,,,65,,,,0.7,0,84,39,1,,70.60555556,201,70.60555556,201,1,129,171,146,161,131,308,338,4531,54651,54033,52930,53211,53913,1,wind,cloud,Planet1A.png,Ship1A.png,Mushroom1A.png,wind0.png,0.0195,0.141
6.6.1,mac,0,2/6/24,16:43:42,1,1,1,experiment,2,feedback,116,615,699,532,1,13,12,12,2,attention,attention,attention,0,12,1,1,,,,5094,146,0,233,0,0,0,1,323,51,279.72,3885,61,10,10,0.950419911,0.7,0,84,39,1,,70.60555556,201,70.60555556,201,1,129,190,146,161,131,308,338,4531,54651,54033,54771,55327,53913,1,wind,cloud,Planet1A.png,Ship1A.png,Mushroom1A.png,wind0.png,0.003,0.144
6.6.1,mac,0,2/6/24,16:43:42,1,1,1,experiment,2,clock,232,549,94,532,1,13,13,13,3,attention,attention,attention,0,13,1,1,,,,5094,146,0,233,0,0,0,1,323,73,,,61,,,,0.7,0,108,39,1,,70.60555556,201,70.60555556,201,1,132,190,146,161,131,308,338,4531,56818,56263,54771,55327,56027,1,wind,cloud,Planet1A.png,Ship1A.png,Mushroom1A.png,wind0.png,0.003,0.144
6.6.1,mac,0,2/6/24,16:43:42,1,1,1,experiment,2,feedback,232,549,699,516,1,14,13,13,3,attention,attention,attention,0,13,1,1,,,,5094,146,0,233,0,0,0,1,323,73,359.568,4994,31,10,10,0.706537334,0.7,0,108,39,1,,70.60555556,201,70.60555556,201,1,132,270,146,161,131,308,338,4531,56818,56263,56947,57478,56027,1,wind,cloud,Planet1A.png,Ship1A.png,Mushroom1A.png,wind0.png,0.003,0.147
6.6.1,mac,0,2/6/24,16:43:42,1,1,1,experiment,2,clock,299,516,374,516,1,14,14,14,4,attention,attention,attention,0,14,1,1,,,,5094,146,0,233,0,0,0,1,323,50,,,31,,,,0.7,0,115.5,39,1,,70.60555556,201,65.77222222,187,1,123,270,146,161,131,308,338,4531,59003,58483,56947,57478,58180,1,wind,cloud,Planet1A.png,Ship1A.png,Mushroom1A.png,wind0.png,0.003,0.147
6.6.1,mac,0,2/6/24,16:43:42,1,1,1,experiment,2,feedback,299,516,699,466,1,15,14,14,4,attention,attention,attention,0,14,1,1,,,,5094,146,0,233,0,0,0,1,323,50,296.928,4124,55,10,10,0.887876507,0.7,0,115.5,39,1,,70.60555556,201,65.77222222,187,1,123,207,146,161,131,308,338,4531,59003,58483,59411,59896,58180,1,wind,cloud,Planet1A.png,Ship1A.png,Mushroom1A.png,wind0.png,0.003,0.15
6.6.1,mac,0,2/6/24,16:43:42,1,1,1,experiment,2,clock,149,649,797,466,1,15,15,15,5,attention,attention,attention,0,15,1,1,,,,5094,146,0,233,0,0,0,1,323,17,,,55,,,,0.7,0,113.75,39,1,,65.77222222,187,60.95277778,173,1,112,207,146,161,131,308,338,4531,61403,60749,59411,59896,60596,1,wind,cloud,Planet1A.png,Ship1A.png,Mushroom1A.png,wind0.png,0.003,0.15
6.6.1,mac,0,2/6/24,16:43:42,1,1,1,experiment,2,feedback,149,649,699,382,1,16,15,15,5,attention,attention,attention,0,15,1,1,,,,5094,146,0,233,0,0,0,1,323,17,208.584,2897,141,141,141,0.122903608,0.7,0,113.75,39,1,,65.77222222,187,60.95277778,173,1,112,119,146,161,131,308,338,4531,61403,60749,62235,62637,60596,1,wind,cloud,Planet1A.png,Ship1A.png,Mushroom1A.png,wind0.png,0.0423,0.1923
6.6.1,mac,0,2/6/24,16:43:42,1,1,1,experiment,2,clock,382,699,1187,382,1,16,16,16,6,attention,attention,attention,0,16,1,1,,,,5094,146,0,233,0,0,0,1,323,56,,,141,,,,0.7,0,108.375,39,1,,60.95277778,173,56.15,159,1,103,119,146,161,131,308,338,4531,64437,63724,62235,62637,63338,1,wind,cloud,Planet1A.png,Ship1A.png,Mushroom1A.png,wind0.png,0.0423,0.1923
6.6.1,mac,0,2/6/24,16:43:42,1,1,1,experiment,2,feedback,382,699,699,499,1,17,16,16,6,attention,attention,attention,0,16,1,1,,,,5094,146,0,233,0,0,0,1,323,56,17.064,237,15,15,15,0.405421459,0.7,0,108.375,39,1,,60.95277778,173,56.15,159,1,103,287,146,161,131,308,338,4531,64437,63724,65659,66180,63338,1,wind,cloud,Planet1A.png,Ship1A.png,Mushroom1A.png,wind0.png,0.0045,0.1968
6.6.1,mac,0,2/6/24,16:43:42,1,1,1,experiment,2,clock,416,499,978,499,1,17,17,17,7,attention,attention,attention,0,,1,1,,,,5094,146,0,233,0,0,0,1,323,53,,,15,,,,0.7,0,108.375,39,1,,56.15,159,56.15,159,1,103,287,146,161,131,308,338,4531,67822,67311,65659,66180,66882,1,wind,cloud,Planet1A.png,Ship1A.png,Mushroom1A.png,wind0.png,0.0045,0.1968
6.6.1,mac,0,2/6/24,16:43:42,1,1,1,experiment,2,feedback,416,499,699,432,1,18,17,17,7,attention,attention,attention,0,,1,1,,,,5094,146,0,233,0,0,0,1,323,53,351.216,4878,26,10,10,0.732951781,0.7,0,108.375,39,1,,56.15,159,56.15,159,1,103,261,146,161,131,308,338,4531,67822,67311,68835,69281,66882,1,wind,cloud,Planet1A.png,Ship1A.png,Mushroom1A.png,wind0.png,0.003,0.1998
6.6.1,mac,0,2/6/24,16:43:42,1,1,1,experiment,2,clock,182,582,1340,432,1,18,18,18,8,attention,attention,attention,0,,1,1,,,,5094,146,0,233,0,0,0,1,323,96,,,26,,,,0.7,0,108.375,39,1,,51.31388889,146,56.15,159,1,103,261,146,161,131,308,338,4531,70755,70169,68835,69281,69982,1,wind,cloud,Planet1A.png,Ship1A.png,Mushroom1A.png,wind0.png,0.003,0.1998
6.6.1,mac,0,2/6/24,16:43:42,1,1,1,experiment,2,feedback,182,582,699,282,1,19,18,18,8,attention,attention,attention,0,,1,1,,,,5094,146,0,233,0,0,0,1,323,96,172.08,2390,124,10,10,0.744039912,0.7,0,108.375,39,1,,51.31388889,146,56.15,159,1,103,82,146,161,131,308,338,4531,70755,70169,72132,72449,69982,1,wind,cloud,Planet1A.png,Ship1A.png,Mushroom1A.png,wind0.png,0.003,0.2028
6.6.1,mac,0,2/6/24,16:43:42,1,1,1,experiment,2,clock,132,632,1453,282,1,19,19,19,9,attention,attention,attention,0,,1,1,,,,5094,146,0,233,0,0,0,1,323,33,,,124,,,,0.7,0,108.375,39,1,,46.51666667,132,56.15,159,1,103,82,146,161,131,308,338,4531,73922,73285,72132,72449,73150,1,wind,cloud,Planet1A.png,Ship1A.png,Mushroom1A.png,wind0.png,0.003,0.2028
6.6.1,mac,0,2/6/24,16:43:42,1,1,1,experiment,2,feedback,132,632,699,399,1,20,19,19,9,attention,attention,attention,0,,1,1,,,,5094,146,0,233,1,0,0,1,323,33,313.416,4353,33,33,33,0.334003861,0.7,1,108.375,39,1,,46.51666667,132,56.15,159,1,103,223,146,161,131,308,338,4531,73922,73285,75411,75833,73150,1,wind,cloud,Planet1A.png,Ship1A.png,Mushroom1A.png,wind0.png,0.0099,0.2127
6.6.1,mac,0,2/6/24,16:43:42,1,1,1,experiment,2,clock,199,532,1158,399,1,20,20,20,10,attention,attention,attention,0,,1,1,,,,5094,146,0,233,0,0,0,1,323,70,,,33,,,,0.7,0,108.375,39,1,,41.68611111,118,56.15,159,1,103,223,146,161,131,308,338,4531,77274,76737,75411,75833,76534,1,wind,cloud,Planet1A.png,Ship1A.png,Mushroom1A.png,wind0.png,0.0099,0.2127
6.6.1,mac,0,2/6/24,16:43:42,1,1,1,experiment,2,feedback,199,532,699,366,1,21,20,20,10,attention,attention,attention,0,,1,1,,,,5094,146,0,233,0,0,0,1,323,70,65.376,908,1,10,1,0.151095562,0.7,0,108.375,39,1,,41.68611111,118,56.15,159,1,103,335,146,161,131,308,338,4531,77274,76737,78467,78851,76534,1,wind,cloud,Planet1A.png,Ship1A.png,Mushroom1A.png,wind0.png,0.003,0.2157
6.6.1,mac,0,2/6/24,16:43:42,1,1,1,experiment,2,clock,316,615,1532,366,1,21,21,21,1,no erasure,no erasure,attention,0,,1,1,,,,5094,146,0,233,,0,0,1,323,60,,,1,,,,0.7,,108.375,39,1,,36.87777778,104,56.15,159,1,103,335,146,161,131,308,338,4531,80491,79871,78467,78851,79552,1,wind,cloud,Planet1A.png,Ship1A.png,Mushroom1A.png,blank.png,0.003,0.2157
6.6.1,mac,0,2/6/24,16:43:42,1,1,1,experiment,2,feedback,316,615,699,449,1,22,21,21,1,no erasure,no erasure,attention,0,,1,1,,,,5094,146,0,233,,0,0,1,323,60,56.304,782,1,10,10,0.941772693,0.7,,108.375,39,1,,36.87777778,104,56.15,159,1,103,326,146,161,131,308,338,4531,80491,79871,82059,82535,79552,1,wind,cloud,Planet1A.png,Ship1A.png,Mushroom1A.png,blank.png,0.003,0.2187
6.6.1,mac,0,2/6/24,16:43:42,1,1,1,experiment,2,clock,99,682,1422,449,1,22,22,22,2,no erasure,no erasure,no erasure,0,,1,1,,,,5094,146,0,233,,0,0,1,323,4,,,1,,,,0.7,,108.375,39,1,,32.05833333,90,56.15,159,1,103,326,146,161,131,308,338,4531,84026,83338,82059,82535,83236,1,wind,cloud,Planet1A.png,Ship1A.png,Mushroom1A.png,blank.png,0.003,0.2187
6.6.1,mac,0,2/6/24,16:43:42,1,1,1,experiment,2,feedback,99,682,699,349,1,23,22,22,2,no erasure,no erasure,no erasure,0,,1,1,,,,5094,146,0,233,,0,0,1,323,4,206.784,2872,60,60,60,0.025508116,0.7,,108.375,39,1,,32.05833333,90,56.15,159,1,103,117,146,161,131,308,338,4531,84026,83338,85483,85852,83236,1,wind,cloud,Planet1A.png,Ship1A.png,Mushroom1A.png,blank.png,0.018,0.2367
6.6.1,mac,0,2/6/24,16:43:42,1,1,1,experiment,2,clock,266,599,758,349,1,23,23,23,3,no erasure,no erasure,no erasure,0,,1,1,,,,5094,146,0,233,,0,0,1,323,12,,,60,,,,0.7,,108.375,39,1,,27.21111111,76,56.15,159,1,103,117,146,161,131,308,338,4531,87427,86822,85483,85852,86553,1,wind,cloud,Planet1A.png,Ship1A.png,Mushroom1A.png,blank.png,0.018,0.2367
6.6.1,mac,0,2/6/24,16:43:42,1,1,1,experiment,2,feedback,266,599,699,549,1,24,23,23,3,no erasure,no erasure,no erasure,0,,1,1,,,,5094,146,0,233,,0,0,1,323,12,187.776,2608,62,62,62,0.019513674,0.7,,108.375,39,1,,27.21111111,76,56.15,159,1,103,98,146,161,131,308,338,4531,87427,86822,88219,88787,86553,1,wind,cloud,Planet1A.png,Ship1A.png,Mushroom1A.png,blank.png,0.0186,0.2553
6.6.1,mac,0,2/6/24,16:43:42,1,1,1,experiment,2,clock,166,566,174,549,1,24,24,24,4,no erasure,no erasure,no erasure,0,,1,1,,,,5094,146,0,233,,0,0,1,323,62,,,62,,,,0.7,,108.375,39,1,,22.4,63,56.15,159,1,103,98,146,161,131,308,338,4531,90228,89657,88219,88787,89487,1,wind,cloud,Planet1A.png,Ship1A.png,Mushroom1A.png,blank.png,0.0186,0.2553