build	computer.platform	computer.touch	date	time	subject	group	sessionid	blockcode	blocknum	trialcode	list.ITI.currentvalue	list.preClockFreeze.currentvalue	latency	list.ISI.currentvalue	block	trialCount	trial	run_trial	block_trial	block_type	trial_type	last_block_type	generate_new_erasure	trial_since_erasure_gen	att_index	era_index	x_final	y_final	ITI_index	seed	list.era_loc.currentvalue	has_erasure	list.att_loc.currentvalue	n_clicks	n_clicks_era_only	timeout_block	timeouts_remain	stim_center_deg	startPos	pos_shifted	rt_shifted	mag	inc_rg	inc	rng	freq	choose_stim	erasure_value	current_erasure	curr_min	list.spread.nextvalue	curr_mean	curr_max	new_mean	to_h	to_l	smooth_kernel2	rt_index	erasure_RT	right_index	left_index	stim_left_deg	stim_right_deg	scanner_sync	trial_start	freeze_start	ISI_start	feedback_start	ITI_start	erasure_blocks	attentional_control	local_uncertainty	picture.planet.item.1	picture.animatedCircle.item.1	picture.feedback2.items.1	picture.stim.item.1	Earnings	totalEarnings
6.6.1	mac	0	2024-02-06	16:59:27	1	1	1	presscont	1	reminder1			469		0		0	0					1		0	0				5094						0	2		0	0	0	0	0	0		0.6999999999999999556																								0	wind	cloud	blank.png	blank.png	blank.png	fog0.png		0
6.6.1	mac	0	2024-02-06	16:59:27	1	1	1	presscont	1	reminder2			172		0		0	0					1		0	0				5094						0	2		0	0	0	0	0	0		0.6999999999999999556																								0	wind	cloud	blank.png	blank.png	blank.png	fog0.png		0
6.6.1	mac	0	2024-02-06	16:59:27	1	1	1	presscont	1	scanner_sync			674		0		0	0					1		0	0				5094						0	2		0	0	0	0	0	0		0.6999999999999999556																		2113						0	wind	cloud	blank.png	blank.png	blank.png	fog0.png		0
6.6.1	mac	0	2024-02-06	16:59:27	1	1	1	presscont	1	countdown			1000		0		0	0					1		0	0				5094						0	2		0	0	0	0	0	0		0.6999999999999999556																		2113						0	wind	cloud	blank.png	blank.png	blank.png	fog0.png		0
6.6.1	mac	0	2024-02-06	16:59:27	1	1	1	experiment	2	clock	282	549	1872		1	1	1	1	1	erasure	erasure		1	1	0	1				5094	146	1		0	0	0	2	236	2			0				0.6999999999999999556	0	39	39	1		nan	201						146	161	131	221	251	2113	5995	5416			5130	1	wind	cloud	Planet1A.png	Ship1A.png	blank.png	fog0.png		0
6.6.1	mac	0	2024-02-06	16:59:27	1	1	1	experiment	2	feedback	282	549	699	282	1	2	1	1	1	erasure	erasure		0	1	0	1				5094	146	1		1	1	0	2	236	2	231.9840000000000088676	3222	52.6616296296296297896	53	52.6616296296296297896	0.5793631457675628704	0.6999999999999999556	1	39	39	1		nan	201					142	146	161	131	221	251	2113	5995	5416	7938	8239	5130	1	wind	cloud	Planet1A.png	Ship1A.png	Mushroom1A.png	fog0.png	0.0158999999999999975	0.0158999999999999975
6.6.1	mac	0	2024-02-06	16:59:27	1	1	1	experiment	2	clock	166	566	1918	282	1	2	2	2	2	erasure	erasure	erasure	0	2	0	1				5094	146	1		1	1	0	2	236	1			52.6616296296296297896				0.6999999999999999556	1	39	39	1		67.8340740740740812953	201	70.6055555555555542924	201	1		142	146	161	131	221	251	2113	9696	9114	7938	8239	8943	1	wind	cloud	Planet1A.png	Ship1A.png	Mushroom1A.png	fog0.png	0.0158999999999999975	0.0158999999999999975
6.6.1	mac	0	2024-02-06	16:59:27	1	1	1	experiment	2	feedback	166	566	699	349	1	3	2	2	2	erasure	erasure	erasure	0	2	0	1				5094	146	1		2	2	0	2	236	1	231.6959999999999979536	3218	53.1226666666666602623	53	53.1226666666666602623	0.1344126302596211076	0.6999999999999999556	1	39	39	1		67.8340740740740812953	201	70.6055555555555542924	201	1		142	146	161	131	221	251	2113	9696	9114	11682	12056	8943	1	wind	cloud	Planet1A.png	Ship1A.png	Mushroom1A.png	fog0.png	0.0158999999999999975	0.0317999999999999949
6.6.1	mac	0	2024-02-06	16:59:27	1	1	1	experiment	2	clock	332	665	306	349	1	3	3	3	3	erasure	no erasure	erasure	0	3	0	1				5094	146	0			0	1	1	236	32			53.1226666666666602623				0.6999999999999999556		39	39	1		67.7327777777777555457	201	70.6055555555555542924	201	1		142	146	161	131	221	251	2113	13780	13095	11682	12056	12758	1	wind	cloud	Planet1A.png	Ship1A.png	Mushroom1A.png	blank.png	0.0158999999999999975	0.0317999999999999949
6.6.1	mac	0	2024-02-06	16:59:27	1	1	1	experiment	2	feedback	332	665	699	266	1	4	3	3	3	erasure	no erasure	erasure	0	3	0	1				5094	146	0			0	1	1	236	32	227.2319999999999993179	3156	82.7519999999999953388	83	82.7519999999999953388	0.2180860653096079183	0.6999999999999999556		39	39	1		67.7327777777777555457	201	70.6055555555555542924	201	1		137	146	161	131	221	251	2113	13780	13095	14154	14458	12758	1	wind	cloud	Planet1A.png	Ship1A.png	Mushroom1A.png	blank.png	0.0248999999999999985	0.0566999999999999935
6.6.1	mac	0	2024-02-06	16:59:27	1	1	1	experiment	2	clock	499	615	940	266	1	4	4	4	4	erasure	no erasure	erasure	0	4	0	1				5094	146	0			0	1	0	236	48			82.7519999999999953388				0.6999999999999999556		39	39	1		67.8340740740740812953	201	70.6055555555555542924	201	1		137	146	161	131	221	251	2113	16298	15662	14154	14458	15159	1	wind	cloud	Planet1A.png	Ship1A.png	Mushroom1A.png	blank.png	0.0248999999999999985	0.0566999999999999935
6.6.1	mac	0	2024-02-06	16:59:27	1	1	1	experiment	2	feedback	499	615	699	432	1	5	4	4	4	erasure	no erasure	erasure	0	4	0	1				5094	146	0			0	1	0	236	48	330.4800000000000181899	4590	48	48	48	0.3538477216739784326	0.6999999999999999556		39	39	1		67.8340740740740812953	201	70.6055555555555542924	201	1		240	146	161	131	221	251	2113	16298	15662	17306	17758	15159	1	wind	cloud	Planet1A.png	Ship1A.png	Mushroom1A.png	blank.png	0.0143999999999999996	0.0710999999999999965
6.6.1	mac	0	2024-02-06	16:59:27	1	1	1	experiment	2	clock	199	632	1067	432	1	5	5	5	5	erasure	erasure	erasure	1	1	0	2				5094	258	1		0	0	0	2	348	69			48				0.6999999999999999556	0	65	65	1		67.9298148148148186465	201	70.6055555555555542924	201	1		240	258	273	243	333	3	2113	19315	18662	17306	17758	18459	1	wind	cloud	Planet1A.png	Ship1A.png	Mushroom1A.png	fog0.png	0.0143999999999999996	0.0710999999999999965
6.6.1	mac	0	2024-02-06	16:59:27	1	1	1	experiment	2	feedback	199	632	699	466	1	6	5	5	5	erasure	erasure	erasure	0	1	0	2				5094	258	1		0	0	0	2	348	69	55.2239999999999966462	767	2	10	2	0.6530377701048361017	0.6999999999999999556	0	65	65	1		67.9298148148148186465	201	70.6055555555555542924	201	1		325	258	273	243	333	3	2113	19315	18662	20450	20942	18459	1	wind	cloud	Planet1A.png	Ship1A.png	Mushroom1A.png	fog0.png	0.0029999999999999996	0.0740999999999999992
6.6.1	mac	0	2024-02-06	16:59:27	1	1	1	experiment	2	clock	299	599	2368	466	1	6	6	6	6	erasure	erasure	erasure	0	2	0	2				5094	258	1		0	0	0	2	348	24			2				0.6999999999999999556	0	65	65	1		72.012962962962973279	201	70.6055555555555542924	201	1		325	258	273	243	333	3	2113	22567	21946	20450	20942	21643	1	wind	cloud	Planet1A.png	Ship1A.png	Mushroom1A.png	fog0.png	0.0029999999999999996	0.0740999999999999992
6.6.1	mac	0	2024-02-06	16:59:27	1	1	1	experiment	2	feedback	299	599	699	532	1	7	6	6	6	erasure	erasure	erasure	0	2	0	2				5094	258	1		1	1	0	2	348	24	346.8960000000000150067	4818	65.4841481481481508808	10	10	0.7401820055069825433	0.6999999999999999556	1	65	65	1		72.012962962962973279	201	70.6055555555555542924	201	1		257	258	273	243	333	3	2113	22567	21946	25002	25560	21643	1	wind	cloud	Planet1A.png	Ship1A.png	Mushroom1A.png	fog0.png	0.0029999999999999996	0.0771000000000000019
6.6.1	mac	0	2024-02-06	16:59:27	1	1	1	experiment	2	clock	349	582	1757	532	1	7	7	7	7	erasure	erasure	erasure	0	3	0	2				5094	258	1		1	1	0	2	348	36			65.4841481481481508808				0.6999999999999999556	1	65	65	1		72.0514814814814741339	201	70.6055555555555542924	201	1		257	258	273	243	333	3	2113	27217	26615	25002	25560	26262	1	wind	cloud	Planet1A.png	Ship1A.png	Mushroom1A.png	fog0.png	0.0029999999999999996	0.0771000000000000019
6.6.1	mac	0	2024-02-06	16:59:27	1	1	1	experiment	2	feedback	349	582	699	232	1	8	7	7	7	erasure	erasure	erasure	0	3	0	2				5094	258	1		2	2	0	2	348	36	346.1039999999999849933	4807	65.5914074074074022747	66	65.5914074074074022747	0.3861280184672511995	0.6999999999999999556	1	65	65	1		72.0514814814814741339	201	70.6055555555555542924	201	1		256	258	273	243	333	3	2113	27217	26615	29042	29294	26262	1	wind	cloud	Planet1A.png	Ship1A.png	Mushroom1A.png	fog0.png	0.0197999999999999982	0.0969
6.6.1	mac	0	2024-02-06	16:59:27	1	1	1	experiment	2	clock	132	699	314	232	1	8	8	8	8	erasure	no erasure	erasure	0	4	0	2				5094	258	0			0	1	1	348	39			65.5914074074074022747				0.6999999999999999556		65	65	1		71.9387037037037231357	201	70.6055555555555542924	201	1		256	258	273	243	333	3	2113	30853	30131	29042	29294	29995	1	wind	cloud	Planet1A.png	Ship1A.png	Mushroom1A.png	blank.png	0.0197999999999999982	0.0969
6.6.1	mac	0	2024-02-06	16:59:27	1	1	1	experiment	2	feedback	132	699	699	449	1	9	8	8	8	erasure	no erasure	erasure	0	4	0	2				5094	258	0			0	1	1	348	39	253.0080000000000097771	3514	70	70	70	0.314227468640130847	0.6999999999999999556		65	65	1		71.9387037037037231357	201	70.6055555555555542924	201	1		163	258	273	243	333	3	2113	30853	30131	31234	31703	29995	1	wind	cloud	Planet1A.png	Ship1A.png	Mushroom1A.png	blank.png	0.0209999999999999978	0.1179000000000000048
6.6.1	mac	0	2024-02-06	16:59:27	1	1	1	experiment	2	clock	432	532	387	449	1	9	9	9	9	erasure	no erasure	erasure	0	5	0	2				5094	258	0			0	1	0	348	100			70				0.6999999999999999556		65	65	1		71.9914814814815002819	201	70.6055555555555542924	201	1		163	258	273	243	333	3	2113	33386	32840	31234	31703	32403	1	wind	cloud	Planet1A.png	Ship1A.png	Mushroom1A.png	blank.png	0.0209999999999999978	0.1179000000000000048
6.6.1	mac	0	2024-02-06	16:59:27	1	1	1	experiment	2	feedback	432	532	699	316	1	10	9	9	9	erasure	no erasure	erasure	0	5	0	2				5094	258	0			0	1	0	348	100	117.8640000000000043201	1637	42	42	42	0.0251168399176366734	0.6999999999999999556		65	65	1		71.9914814814815002819	201	70.6055555555555542924	201	1		28	258	273	243	333	3	2113	33386	32840	33842	34180	32403	1	wind	cloud	Planet1A.png	Ship1A.png	Mushroom1A.png	blank.png	0.0125999999999999984	0.1305000000000000049
6.6.1	mac	0	2024-02-06	16:59:27	1	1	1	experiment	2	clock	449	649	1282	316	1	10	10	10	10	erasure	erasure	erasure	1	1	0	3				5094	280	1		0	0	0	2	10	51			42				0.6999999999999999556	0	46	46	1		71.9387037037037231357	201	70.6055555555555542924	201	1		28	280	295	265	355	25	2113	36004	35334	33842	34180	34881	1	wind	cloud	Planet1A.png	Ship1A.png	Mushroom1A.png	fog0.png	0.0125999999999999984	0.1305000000000000049
6.6.1	mac	0	2024-02-06	16:59:27	1	1	1	experiment	2	feedback	449	649	699	582	1	11	10	10	10	erasure	erasure	erasure	0	1	0	3				5094	280	1		1	1	0	2	10	51	5.9039999999999999147	82	46.6257777777777846495	10	10	0.9573114616696982715	0.6999999999999999556	1	46	46	1		71.9387037037037231357	201	70.6055555555555542924	201	1		276	280	295	265	355	25	2113	36004	35334	37354	37963	34881	1	wind	cloud	Planet1A.png	Ship1A.png	Mushroom1A.png	fog0.png	0.0029999999999999996	0.1335000000000000075
6.6.1	mac	0	2024-02-06	16:59:27	1	1	1	experiment	2	clock	232	682	354	582	1	11	11	11	1	attention	attention	erasure	0	2	1	3				5094	280	0	233	0	1	0	2	323	93			46.6257777777777846495				0.6999999999999999556	0	46	46	1		71.7177777777777976098	201	70.6055555555555542924	201	1		276	280	295	265	308	338	2113	39604	38902	37354	37963	38665	1	wind	cloud	Planet1A.png	Ship1A.png	Mushroom1A.png	wind0.png	0.0029999999999999996	0.1335000000000000075
6.6.1	mac	0	2024-02-06	16:59:27	1	1	1	experiment	2	feedback	232	682	699	516	1	12	11	11	1	attention	attention	erasure	0	2	1	3				5094	280	0	233	0	1	0	2	323	93	90.2879999999999967031	1254	9	10	9	0.5460172406272071344	0.6999999999999999556	0	46	46	1		71.7177777777777976098	201	70.6055555555555542924	201	1		1	280	295	265	308	338	2113	39604	38902	40026	40564	38665	1	wind	cloud	Planet1A.png	Ship1A.png	Mushroom1A.png	wind0.png	0.0029999999999999996	0.1365000000000000102
6.6.1	mac	0	2024-02-06	16:59:27	1	1	1	experiment	2	clock	416	516	344	516	1	12	12	12	2	attention	attention	attention	0	3	1	3				5094	280	0	233	0	1	0	2	323	98			9				0.6999999999999999556	0	46	46	1		71.7562962962963126756	201	70.6055555555555542924	201	1		1	280	295	265	308	338	2113	42223	41687	40026	40564	41266	1	wind	cloud	Planet1A.png	Ship1A.png	Mushroom1A.png	wind0.png	0.0029999999999999996	0.1365000000000000102
6.6.1	mac	0	2024-02-06	16:59:27	1	1	1	experiment	2	feedback	416	516	699	332	1	13	12	12	2	attention	attention	attention	0	3	1	3				5094	280	0	233	0	1	0	2	323	98	107.56799999999999784	1494	29	10	10	0.7870444696832086251	0.6999999999999999556	0	46	46	1		71.7562962962963126756	201	70.6055555555555542924	201	1		18	280	295	265	308	338	2113	42223	41687	42634	42981	41266	1	wind	cloud	Planet1A.png	Ship1A.png	Mushroom1A.png	wind0.png	0.0029999999999999996	0.1395000000000000129
6.6.1	mac	0	2024-02-06	16:59:27	1	1	1	experiment	2	clock	482	499	197	332	1	13	13	13	3	attention	attention	attention	0	4	1	3				5094	280	0	233	0	1	0	2	323	15			29				0.6999999999999999556	0	46	46	1		71.7777777777777856727	201	70.6055555555555542924	201	1		18	280	295	265	308	338	2113	44690	44170	42634	42981	43683	1	wind	cloud	Planet1A.png	Ship1A.png	Mushroom1A.png	wind0.png	0.0029999999999999996	0.1395000000000000129
6.6.1	mac	0	2024-02-06	16:59:27	1	1	1	experiment	2	feedback	482	499	699	249	1	14	13	13	3	attention	attention	attention	0	4	1	3				5094	280	0	233	0	1	0	2	323	15	158.1839999999999974989	2197	152	152	152	0.4257961263474533409	0.6999999999999999556	0	46	46	1		71.7777777777777856727	201	70.6055555555555542924	201	1		68	280	295	265	308	338	2113	44690	44170	44954	45224	43683	1	wind	cloud	Planet1A.png	Ship1A.png	Mushroom1A.png	wind0.png	0.0455999999999999947	0.1851000000000000145
6.6.1	mac	0	2024-02-06	16:59:27	1	1	1	experiment	2	clock	366	516	2014	249	1	14	14	14	4	attention	attention	attention	0	5	1	3				5094	280	0	233	0	1	0	2	323	5			152				0.6999999999999999556	0	42.8500000000000014211	46	1		71.7562962962963126756	201	65.772222222222225696	187	1		68	280	295	265	308	338	2113	46841	46298	44954	45224	45927	1	wind	cloud	Planet1A.png	Ship1A.png	Mushroom1A.png	wind0.png	0.0455999999999999947	0.1851000000000000145
6.6.1	mac	0	2024-02-06	16:59:27	1	1	1	experiment	2	feedback	366	516	699	549	1	15	14	14	4	attention	attention	attention	0	5	1	3				5094	280	0	233	0	1	0	2	323	5	253.0080000000000097771	3514	65	65	65	0.4715850489380734589	0.6999999999999999556	0	42.8500000000000014211	46	1		71.7562962962963126756	201	65.772222222222225696	187	1		163	280	295	265	308	338	2113	46841	46298	48922	49500	45927	1	wind	cloud	Planet1A.png	Ship1A.png	Mushroom1A.png	wind0.png	0.0195	0.2046000000000000041
6.6.1	mac	0	2024-02-06	16:59:27	1	1	1	experiment	2	clock	399	599	1557	549	1	15	15	15	5	attention	attention	attention	0	6	1	3				5094	280	0	233	0	1	0	2	323	18			65				0.6999999999999999556	0	39.7000000000000028422	46	1		66.8496018518518582141	187	60.9527777777777757251	173	1		163	280	295	265	308	338	2113	51224	50606	48922	49500	50202	1	wind	cloud	Planet1A.png	Ship1A.png	Mushroom1A.png	wind0.png	0.0195	0.2046000000000000041
6.6.1	mac	0	2024-02-06	16:59:27	1	1	1	experiment	2	feedback	399	599	699	599	1	16	15	15	5	attention	attention	attention	0	6	1	3				5094	280	0	233	0	1	0	2	323	18	266.903999999999996362	3707	54	54	54	0.3404618567648488026	0.6999999999999999556	0	39.7000000000000028422	46	1		66.8496018518518582141	187	60.9527777777777757251	173	1		177	280	295	265	308	338	2113	51224	50606	52850	53468	50202	1	wind	cloud	Planet1A.png	Ship1A.png	Mushroom1A.png	wind0.png	0.0161999999999999991	0.2207999999999999963
6.6.1	mac	0	2024-02-06	16:59:27	1	1	1	experiment	2	clock	266	682	1448	599	1	16	16	16	6	attention	attention	attention	0	7	1	3				5094	280	0	233	0	1	0	2	323	27			54				0.6999999999999999556	0	36.5500000000000042633	46	1		61.9699444444444367264	173	56.1499999999999985789	159	1		177	280	295	265	308	338	2113	55142	54441	52850	53468	54170	1	wind	cloud	Planet1A.png	Ship1A.png	Mushroom1A.png	wind0.png	0.0161999999999999991	0.2207999999999999963
6.6.1	mac	0	2024-02-06	16:59:27	1	1	1	experiment	2	feedback	266	682	699	399	1	17	16	16	6	attention	attention	attention	0	7	1	3				5094	280	0	233	0	1	0	2	323	27	291.4560000000000172804	4048	48	10	10	0.9529928192386852848	0.6999999999999999556	0	36.5500000000000042633	46	1		61.9699444444444367264	173	56.1499999999999985789	159	1		201	280	295	265	308	338	2113	55142	54441	56658	57085	54170	1	wind	cloud	Planet1A.png	Ship1A.png	Mushroom1A.png	wind0.png	0.0029999999999999996	0.2237999999999999989
6.6.1	mac	0	2024-02-06	16:59:27	1	1	1	experiment	2	clock	249	566	1236	399	1	17	17	17	7	attention	attention	attention	0	8	1	3				5094	280	0	233	0	1	0	2	323	90			48				0.6999999999999999556	0	33.6250000000000071054	46	1		57.0684351851851943138	159	51.3138888888888899942	146	1		201	280	295	265	308	338	2113	58627	58041	56658	57085	57787	1	wind	cloud	Planet1A.png	Ship1A.png	Mushroom1A.png	wind0.png	0.0029999999999999996	0.2237999999999999989
6.6.1	mac	0	2024-02-06	16:59:27	1	1	1	experiment	2	feedback	249	566	699	566	1	18	17	17	7	attention	attention	attention	0	8	1	3				5094	280	0	233	0	1	0	2	323	90	142.9919999999999902229	1986	79	79	79	0.5796007482753137152	0.6999999999999999556	0	33.6250000000000071054	46	1		57.0684351851851943138	159	51.3138888888888899942	146	1		53	280	295	265	308	338	2113	58627	58041	59930	60520	57787	1	wind	cloud	Planet1A.png	Ship1A.png	Mushroom1A.png	wind0.png	0.0236999999999999988	0.2474999999999999978
6.6.1	mac	0	2024-02-06	16:59:27	1	1	1	experiment	2	clock	116	632	1611	566	1	18	18	18	8	attention	attention	attention	0	9	1	3				5094	280	0	233	0	1	0	2	323	32			79				0.6999999999999999556	0	30.4750000000000085265	46	1		52.1793749999999789679	146	46.5166666666666657193	132	1		53	280	295	265	308	338	2113	61994	61343	59930	60520	61222	1	wind	cloud	Planet1A.png	Ship1A.png	Mushroom1A.png	wind0.png	0.0236999999999999988	0.2474999999999999978
6.6.1	mac	0	2024-02-06	16:59:27	1	1	1	experiment	2	feedback	116	632	699	416	1	19	18	18	8	attention	attention	attention	0	9	1	3				5094	280	0	233	1	1	0	2	323	32	321.192000000000007276	4461	35	35	35	0.0292266288374612646	0.6999999999999999556	1	30.4750000000000085265	46	1		52.1793749999999789679	146	46.5166666666666657193	132	1		231	280	295	265	308	338	2113	61994	61343	63674	64104	61222	1	wind	cloud	Planet1A.png	Ship1A.png	Mushroom1A.png	wind0.png	0.0104999999999999989	0.2580000000000000071
6.6.1	mac	0	2024-02-06	16:59:27	1	1	1	experiment	2	clock	382	499	1574	416	1	19	19	19	9	attention	attention	attention	0	10	1	3				5094	280	0	233	0	1	0	2	323	33			35				0.6999999999999999556	0	27.3250000000000063949	46	1		47.294902777777792835	132	41.6861111111111100058	118	1		231	280	295	265	308	338	2113	65711	65192	63674	64104	64805	1	wind	cloud	Planet1A.png	Ship1A.png	Mushroom1A.png	wind0.png	0.0104999999999999989	0.2580000000000000071
6.6.1	mac	0	2024-02-06	16:59:27	1	1	1	experiment	2	feedback	382	499	699	482	1	20	19	19	9	attention	attention	attention	0	10	1	3				5094	280	0	233	1	1	0	2	323	33	322.1279999999999859028	4474	31	31	31	0.619236369062968639	0.6999999999999999556	1	27.3250000000000063949	46	1		47.294902777777792835	132	41.6861111111111100058	118	1		232	280	295	265	308	338	2113	65711	65192	67354	67855	64805	1	wind	cloud	Planet1A.png	Ship1A.png	Mushroom1A.png	wind0.png	0.0092999999999999992	0.2672999999999999821
6.6.1	mac	0	2024-02-06	16:59:27	1	1	1	experiment	2	clock	466	699	1196	482	1	20	20	20	10	attention	attention	attention	0	11	1	3				5094	280	0	233	0	1	0	2	323	63			31				0.6999999999999999556	0	24.175000000000007816	46	1		42.418023148148158441	118	36.8777777777777799884	104	1		232	280	295	265	308	338	2113	69730	69023	67354	67855	68557	1	wind	cloud	Planet1A.png	Ship1A.png	Mushroom1A.png	wind0.png	0.0092999999999999992	0.2672999999999999821
6.6.1	mac	0	2024-02-06	16:59:27	1	1	1	experiment	2	feedback	466	699	699	366	1	21	20	20	10	attention	attention	attention	0	11	1	3				5094	280	0	233	0	1	0	2	323	63	42.9119999999999990337	596	3	10	3	0.553792472824871651	0.6999999999999999556	0	24.175000000000007816	46	1		42.418023148148158441	118	36.8777777777777799884	104	1		313	280	295	265	308	338	2113	69730	69023	70994	71372	68557	1	wind	cloud	Planet1A.png	Ship1A.png	Mushroom1A.png	wind0.png	0.0029999999999999996	0.2702999999999999847
6.6.1	mac	0	2024-02-06	16:59:27	1	1	1	experiment	2	clock	182	582	927	366	1	21	21	21	1	no erasure	no erasure	attention	0	12	1	3				5094	280	0	233		1	0	2	323	88			3				0.6999999999999999556		19.5875000000000056843	46	1		36.8777777777777799884	104	32.0583333333333300175	90	1	15	313	280	295	265	308	338	2113	72847	72256	70994	71372	72074	1	wind	cloud	Planet1A.png	Ship1A.png	Mushroom1A.png	blank.png	0.0029999999999999996	0.2702999999999999847
6.6.1	mac	0	2024-02-06	16:59:27	1	1	1	experiment	2	feedback	182	582	699	499	1	22	21	21	1	no erasure	no erasure	attention	0	12	1	3				5094	280	0	233		1	0	2	323	88	113.5439999999999969305	1577	19	19	19	0.3033275460599287321	0.6999999999999999556		19.5875000000000056843	46	1		36.8777777777777799884	104	32.0583333333333300175	90	1	15	24	280	295	265	308	338	2113	72847	72256	73842	74356	72074	1	wind	cloud	Planet1A.png	Ship1A.png	Mushroom1A.png	blank.png	0.0056999999999999993	0.2759999999999999676
6.6.1	mac	0	2024-02-06	16:59:27	1	1	1	experiment	2	clock	216	532	1816	499	1	22	22	22	2	no erasure	no erasure	no erasure	0	13	1	3				5094	280	0	233		1	0	2	323	20			19				0.6999999999999999556		15.7937500000000028422	46	1		32.0583333333333300175	90	27.2111111111111121375	76	1	12	24	280	295	265	308	338	2113	75814	75274	73842	74356	75058	1	wind	cloud	Planet1A.png	Ship1A.png	Mushroom1A.png	blank.png	0.0056999999999999993	0.2759999999999999676
6.6.1	mac	0	2024-02-06	16:59:27	1	1	1	experiment	2	feedback	216	532	699	216	1	23	22	22	2	no erasure	no erasure	no erasure	0	13	1	3				5094	280	0	233		1	0	2	323	20	292.7520000000000095497	4066	23	10	10	0.9274014090018816159	0.6999999999999999556		15.7937500000000028422	46	1		32.0583333333333300175	90	27.2111111111111121375	76	1	12	203	280	295	265	308	338	2113	75814	75274	77698	77941	75058	1	wind	cloud	Planet1A.png	Ship1A.png	Mushroom1A.png	blank.png	0.0029999999999999996	0.2789999999999999702
6.6.1	mac	0	2024-02-06	16:59:27	1	1	1	experiment	2	clock	149	649	1878	216	1	23	23	23	3	no erasure	no erasure	no erasure	0	14	1	3				5094	280	0	233		1	0	2	323	33			23				0.6999999999999999556		12.8968750000000014211	46	1		27.2111111111111121375	76	22.3999999999999985789	63	1	10	203	280	295	265	308	338	2113	79449	78792	77698	77941	78643	1	wind	cloud	Planet1A.png	Ship1A.png	Mushroom1A.png	blank.png	0.0029999999999999996	0.2789999999999999702
6.6.1	mac	0	2024-02-06	16:59:27	1	1	1	experiment	2	feedback	149	649	699	299	1	24	23	23	3	no erasure	no erasure	no erasure	0	14	1	3				5094	280	0	233		1	0	2	323	33	344.0160000000000195541	4778	13	13	13	0.4577354126278626034	0.6999999999999999556		12.8968750000000014211	46	1		27.2111111111111121375	76	22.3999999999999985789	63	1	10	254	280	295	265	308	338	2113	79449	78792	81394	81708	78643	1	wind	cloud	Planet1A.png	Ship1A.png	Mushroom1A.png	blank.png	0.0038999999999999998	0.2828999999999999848
6.6.1	mac	0	2024-02-06	16:59:27	1	1	1	experiment	2	clock	99	665	1743	299	1	24	24	24	4	no erasure	no erasure	no erasure	0	15	1	3				5094	280	0	233		1	0	2	323	89			13				0.6999999999999999556		10.4484375000000007105	46	1		22.3999999999999985789	63	17.5833333333333321491	49	1	8	254	280	295	265	308	338	2113	83182	82508	81394	81708	82409	1	wind	cloud	Planet1A.png	Ship1A.png	Mushroom1A.png	blank.png	0.0038999999999999998	0.2828999999999999848
6.6.1	mac	0	2024-02-06	16:59:27	1	1	1	experiment	2	feedback	99	665	699	382	1	25	24	24	4	no erasure	no erasure	no erasure	0	15	1	3				5094	280	0	233		1	0	2	323	89	175.895999999999986585	2443	48	48	48	0.6251709159987910436	0.6999999999999999556		10.4484375000000007105	46	1		22.3999999999999985789	63	17.5833333333333321491	49	1	8	86	280	295	265	308	338	2113	83182	82508	84994	85393	82409	1	wind	cloud	Planet1A.png	Ship1A.png	Mushroom1A.png	blank.png	0.0143999999999999996	0.2973000000000000087
6.6.1	mac	0	2024-02-06	16:59:27	1	1	1	experiment	2	clock	316	615	1612	382	1	25	25	25	5	no erasure	no erasure	no erasure	0	16	1	3				5094	280	0	233		1	0	2	323	39			48				0.6999999999999999556		8.2242187500000003553	46	1		17.5833333333333321491	49	12.7722222222222221433	35	1	6	86	280	295	265	308	338	2113	87033	86410	84994	85393	86094	1	wind	cloud	Planet1A.png	Ship1A.png	Mushroom1A.png	blank.png	0.0143999999999999996	0.2973000000000000087
6.6.1	mac	0	2024-02-06	16:59:27	1	1	1	experiment	2	feedback	316	615	699	249	1	26	25	25	5	no erasure	no erasure	no erasure	0	16	1	3				5094	280	0	233		1	0	2	323	39	346.4639999999999986358	4812	7	10	10	0.9315653010112152632	0.6999999999999999556		8.2242187500000003553	46	1		17.5833333333333321491	49	12.7722222222222221433	35	1	6	256	280	295	265	308	338	2113	87033	86410	88714	88977	86094	1	wind	cloud	Planet1A.png	Ship1A.png	Mushroom1A.png	blank.png	0.0029999999999999996	0.3003000000000000114
6.6.1	mac	0	2024-02-06	16:59:27	1	1	1	experiment	2	clock	349	549	1117	249	1	26	26	26	6	no erasure	no erasure	no erasure	0		1	3				5094	280	0	233		1	0	2	323	22			7				0.6999999999999999556		8.2242187500000003553	46	1		12.7722222222222221433	35	12.7722222222222221433	35	1	6	256	280	295	265	308	338	2113	90585	90028	88714	88977	89679	1	wind	cloud	Planet1A.png	Ship1A.png	Mushroom1A.png	blank.png	0.0029999999999999996	0.3003000000000000114
6.6.1	mac	0	2024-02-06	16:59:27	1	1	1	experiment	2	feedback	349	549	699	449	1	27	26	26	6	no erasure	no erasure	no erasure	0		1	3				5094	280	0	233		1	0	2	323	22	249.6239999999999952252	3467	1	10	1	0.4500919460435611752	0.6999999999999999556		8.2242187500000003553	46	1		12.7722222222222221433	35	12.7722222222222221433	35	1	6	160	280	295	265	308	338	2113	90585	90028	91770	92244	89679	1	wind	cloud	Planet1A.png	Ship1A.png	Mushroom1A.png	blank.png	0.0029999999999999996	0.303300000000000014
6.6.1	mac	0	2024-02-06	16:59:27	1	1	1	experiment	2	preFreeze	182	699	136	449	1	27	27	27	7	no erasure	no erasure	no erasure	0		1	3				5094	280	0	233		1	0	2	323	32			1				0.6999999999999999556		8.2242187500000003553	46	1		7.9611111111111112493	21	12.7722222222222221433	35	1	6	160	280	295	265	308	338	2113	90585	93127	91770	92244	92945	1	wind	cloud	Planet1A.png	Ship1A.png	Mushroom1A.png	blank.png	0.0029999999999999996	0.303300000000000014
