build	computer.platform	computer.touch	date	time	subject	group	sessionid	blockcode	blocknum	trialcode	list.ITI.currentvalue	list.preClockFreeze.currentvalue	latency	list.ISI.currentvalue	block	trialCount	trial	run_trial	block_trial	block_type	trial_type	last_block_type	generate_new_erasure	trial_since_erasure_gen	deg_index_att	deg_index_era	att_index	era_index	seed	list.era_loc.currentvalue	has_erasure	list.att_loc.currentvalue	n_clicks	timeout_block	timeouts_remain	stim_center_deg	startPos	pos_shifted	rt_shifted	mag	inc_rg	inc	rng	freq	choose_stim	erasure_value	erasure_RT	right_index	left_index	stim_left_deg	stim_right_deg	trial	erasure_blocks	attentional_control	local_uncertainty	picture.planet.item.1	picture.animatedCircle.item.1	picture.feedback2.items.1	Earnings	totalEarnings
6.6.1	mac	0	2023-12-01	11:53:48	1	1	1	experiment	1	clock	200	650	233		1	1	1	1	1	attention	attention		1				1	0	2455		0	232	0	0	2	322	9			0				0.6999999999999999556	0					307	337	1	0	cloud	wind	Planet1A.png	Ship1A.png	blank.png		0
6.6.1	mac	0	2023-12-01	11:53:48	1	1	1	experiment	1	feedback	200	650	700	540	1	2	1	1	1	attention	attention		0				1	0	2455		0	232	0	0	2	322	9	139.1759999999999877218	1933	195	150	195	0.0528663473792528593	0.6999999999999999556	0					307	337	1	0	cloud	wind	Planet1A.png	Ship1A.png	Mushroom1A.png	0.0449999999999999983	0.0449999999999999983
6.6.1	mac	0	2023-12-01	11:53:48	1	1	1	experiment	1	clock	390	630	289	540	1	2	2	2	2	attention	attention	attention	0				1	0	2455		0	232	0	0	2	322	24			195				0.6999999999999999556	0					307	337	2	0	cloud	wind	Planet1A.png	Ship1A.png	Mushroom1A.png	0.0449999999999999983	0.0449999999999999983
6.6.1	mac	0	2023-12-01	11:53:48	1	1	1	experiment	1	feedback	390	630	700	560	1	3	2	2	2	attention	attention	attention	0				1	0	2455		0	232	0	0	2	322	24	197.2079999999999984084	2739	180	10	10	0.8450434365880311605	0.6999999999999999556	0					307	337	2	0	cloud	wind	Planet1A.png	Ship1A.png	Mushroom1A.png	0.0029999999999999996	0.048000000000000001
6.6.1	mac	0	2023-12-01	11:53:48	1	1	1	experiment	1	clock	450	620	283	560	1	3	3	3	3	attention	attention	attention	0				1	0	2455		0	232	0	0	2	322	76			180				0.6999999999999999556	0					307	337	3	0	cloud	wind	Planet1A.png	Ship1A.png	Mushroom1A.png	0.0029999999999999996	0.048000000000000001
6.6.1	mac	0	2023-12-01	11:53:48	1	1	1	experiment	1	feedback	450	620	700	590	1	4	3	3	3	attention	attention	attention	0				1	0	2455		0	232	0	0	2	322	76	23.9759999999999990905	333	27	27	27	0.3169275050323753229	0.6999999999999999556	0					307	337	3	0	cloud	wind	Planet1A.png	Ship1A.png	Mushroom1A.png	0.0080999999999999996	0.0560999999999999971
6.6.1	mac	0	2023-12-01	11:53:48	1	1	1	experiment	1	clock	240	590	151	590	1	4	4	4	4	attention	attention	attention	0				1	0	2455		0	232	0	0	2	322	37			27				0.6999999999999999556	0					307	337	4	0	cloud	wind	Planet1A.png	Ship1A.png	Mushroom1A.png	0.0080999999999999996	0.0560999999999999971
6.6.1	mac	0	2023-12-01	11:53:48	1	1	1	experiment	1	feedback	240	590	700	280	1	5	4	4	4	attention	attention	attention	0				1	0	2455		0	232	0	0	2	322	37	234.0720000000000027285	3251	125	125	125	0.6003468883224639674	0.6999999999999999556	0					307	337	4	0	cloud	wind	Planet1A.png	Ship1A.png	Mushroom1A.png	0.0374999999999999986	0.0935999999999999888
6.6.1	mac	0	2023-12-01	11:53:48	1	1	1	experiment	1	clock	300	540	314	280	1	5	5	5	5	attention	attention	attention	0				1	0	2455		0	232	0	0	2	322	49			125				0.6999999999999999556	0					307	337	5	0	cloud	wind	Planet1A.png	Ship1A.png	Mushroom1A.png	0.0374999999999999986	0.0935999999999999888
6.6.1	mac	0	2023-12-01	11:53:48	1	1	1	experiment	1	feedback	300	540	700	210	1	6	5	5	5	attention	attention	attention	0				1	0	2455		0	232	0	0	2	322	49	289.0079999999999813554	4014	35	35	35	0.2129555547640089863	0.6999999999999999556	0					307	337	5	0	cloud	wind	Planet1A.png	Ship1A.png	Mushroom1A.png	0.0104999999999999989	0.1040999999999999842
6.6.1	mac	0	2023-12-01	11:53:48	1	1	1	experiment	1	clock	170	500	299	210	1	6	6	6	6	attention	attention	attention	0				1	0	2455		0	232	0	0	2	322	48			35				0.6999999999999999556	0					307	337	6	0	cloud	wind	Planet1A.png	Ship1A.png	Mushroom1A.png	0.0104999999999999989	0.1040999999999999842
6.6.1	mac	0	2023-12-01	11:53:48	1	1	1	experiment	1	feedback	170	500	700	580	1	7	6	6	6	attention	attention	attention	0				1	0	2455		0	232	0	0	2	322	48	284.3279999999999745341	3949	40	40	40	0.6932343958628444103	0.6999999999999999556	0					307	337	6	0	cloud	wind	Planet1A.png	Ship1A.png	Mushroom1A.png	0.0119999999999999985	0.116099999999999981
6.6.1	mac	0	2023-12-01	11:53:48	1	1	1	experiment	1	clock	310	660	267	580	1	7	7	7	7	attention	attention	attention	0				1	0	2455		0	232	0	0	2	322	22			40				0.6999999999999999556	0					307	337	7	0	cloud	wind	Planet1A.png	Ship1A.png	Mushroom1A.png	0.0119999999999999985	0.116099999999999981
6.6.1	mac	0	2023-12-01	11:53:48	1	1	1	experiment	1	feedback	310	660	700	450	1	8	7	7	7	attention	attention	attention	0				1	0	2455		0	232	0	0	2	322	22	188.4240000000000065938	2617	164	150	164	0.4018895529214966955	0.6999999999999999556	0					307	337	7	0	cloud	wind	Planet1A.png	Ship1A.png	Mushroom1A.png	0.0449999999999999983	0.1610999999999999654
6.6.1	mac	0	2023-12-01	11:53:48	1	1	1	experiment	1	clock	130	510	416	450	1	8	8	8	8	attention	attention	attention	0				1	0	2455		0	232	0	0	2	322	66			164				0.6999999999999999556	0					307	337	8	0	cloud	wind	Planet1A.png	Ship1A.png	Mushroom1A.png	0.0449999999999999983	0.1610999999999999654
6.6.1	mac	0	2023-12-01	11:53:48	1	1	1	experiment	1	feedback	130	510	700	300	1	9	8	8	8	attention	attention	attention	0				1	0	2455		0	232	0	0	2	322	66	357.5520000000000209184	4966	5	10	5	0.4163068785370110936	0.6999999999999999556	0					307	337	8	0	cloud	wind	Planet1A.png	Ship1A.png	Mushroom1A.png	0.0029999999999999996	0.1640999999999999681
6.6.1	mac	0	2023-12-01	11:53:48	1	1	1	experiment	1	clock	160	570	266	300	1	9	9	9	9	attention	attention	attention	0				1	0	2455		0	232	0	0	2	322	38			5				0.6999999999999999556	0					307	337	9	0	cloud	wind	Planet1A.png	Ship1A.png	Mushroom1A.png	0.0029999999999999996	0.1640999999999999681
6.6.1	mac	0	2023-12-01	11:53:48	1	1	1	experiment	1	feedback	160	570	700	330	1	10	9	9	9	attention	attention	attention	0				1	0	2455		0	232	0	0	2	322	38	245.951999999999998181	3416	65	10	10	0.939324839957832558	0.6999999999999999556	0					307	337	9	0	cloud	wind	Planet1A.png	Ship1A.png	Mushroom1A.png	0.0029999999999999996	0.1670999999999999708
6.6.1	mac	0	2023-12-01	11:53:48	1	1	1	experiment	1	clock	140	550	310	330	1	10	10	10	10	attention	attention	attention	0				1	0	2455		0	232	0	0	2	322	7			65				0.6999999999999999556	0					307	337	10	0	cloud	wind	Planet1A.png	Ship1A.png	Mushroom1A.png	0.0029999999999999996	0.1670999999999999708
6.6.1	mac	0	2023-12-01	11:53:48	1	1	1	experiment	1	feedback	140	550	700	520	1	11	10	10	10	attention	attention	attention	0				1	0	2455		0	232	0	0	2	322	7	137.5200000000000102318	1910	94	10	10	0.8493266121599186702	0.6999999999999999556	0					307	337	10	0	cloud	wind	Planet1A.png	Ship1A.png	Mushroom1A.png	0.0029999999999999996	0.1700999999999999734
6.6.1	mac	0	2023-12-01	11:53:48	1	1	1	experiment	1	clock	500	700	4508	520	1	11	11	11	1	erasure	erasure	attention	1	1			1	1	2455	102	1	232	0	0	2	192	38			94				0.6999999999999999556	0	45	102	117	87	177	207	11	1	cloud	wind	Planet1A.png	Ship1A.png	Mushroom1A.png	0.0029999999999999996	0.1700999999999999734
6.6.1	mac	0	2023-12-01	11:53:48	1	1	1	experiment	1	feedback	500	700	700	510	1	12	11	11	1	erasure	erasure	attention	0	1			1	1	2455	102	1	232	1	0	2	192	38	191.3760000000000047748	2658	68	68	68	0.1360081127230096942	0.6999999999999999556	1	45	102	117	87	177	207	11	1	cloud	wind	Planet1A.png	Ship1A.png	Mushroom1A.png	0.020399999999999998	0.1904999999999999749
6.6.1	mac	0	2023-12-01	11:53:48	1	1	1	experiment	1	clock	400	530	4374	510	1	12	12	12	2	erasure	erasure	erasure	0	2			1	1	2455	102	1	232	1	0	2	192	41			68				0.6999999999999999556	1	45	102	117	87	177	207	12	1	cloud	wind	Planet1A.png	Ship1A.png	Mushroom1A.png	0.020399999999999998	0.1904999999999999749
6.6.1	mac	0	2023-12-01	11:53:48	1	1	1	experiment	1	feedback	400	530	700	340	1	13	12	12	2	erasure	erasure	erasure	0	2			1	1	2455	102	1	232	2	0	2	192	41	192.5279999999999915872	2674	43	43	43	0.6070716049538625869	0.6999999999999999556	1	45	102	117	87	177	207	12	1	cloud	wind	Planet1A.png	Ship1A.png	Mushroom1A.png	0.0128999999999999983	0.2033999999999999697
6.6.1	mac	0	2023-12-01	11:53:48	1	1	1	experiment	1	clock	190	600	713	340	1	13	13	13	3	erasure	no erasure	erasure	0	3			1	1	2455	102	0	232		1	1	192	80			43				0.6999999999999999556		13.3943661971830980661	102	117	87	177	207	13	1	cloud	wind	Planet1A.png	Ship1A.png	Mushroom1A.png	0.0128999999999999983	0.2033999999999999697
6.6.1	mac	0	2023-12-01	11:53:48	1	1	1	experiment	1	feedback	190	600	700	240	1	14	13	13	3	erasure	no erasure	erasure	0	3			1	1	2455	102	0	232		1	1	192	80	69.3359999999999985221	963	2	10	10	0.8117644297452094593	0.6999999999999999556		13.3943661971830980661	102	117	87	177	207	13	1	cloud	wind	Planet1A.png	Ship1A.png	Mushroom1A.png	0.0029999999999999996	0.2063999999999999724
6.6.1	mac	0	2023-12-01	11:53:48	1	1	1	experiment	1	clock	430	610	197	240	1	14	14	14	4	erasure	no erasure	erasure	0	4			1	1	2455	102	0	232		1	0	192	39			2				0.6999999999999999556		23.3098591549295761638	102	117	87	177	207	14	1	cloud	wind	Planet1A.png	Ship1A.png	Mushroom1A.png	0.0029999999999999996	0.2063999999999999724
6.6.1	mac	0	2023-12-01	11:53:48	1	1	1	experiment	1	feedback	430	610	700	550	1	15	14	14	4	erasure	no erasure	erasure	0	4			1	1	2455	102	0	232		1	0	192	39	244.5840000000000031832	3397	33	33	33	0.465607442070172961	0.6999999999999999556		23.3098591549295761638	102	117	87	177	207	14	1	cloud	wind	Planet1A.png	Ship1A.png	Mushroom1A.png	0.0098999999999999991	0.2162999999999999645
6.6.1	mac	0	2023-12-01	11:53:48	1	1	1	experiment	1	clock	350	640	3740	550	1	15	15	15	5	erasure	erasure	erasure	1	1			1	2	2455	21	1	232	0	0	2	111	30			33				0.6999999999999999556	0	22	21	36	6	96	126	15	1	cloud	wind	Planet1A.png	Ship1A.png	Mushroom1A.png	0.0098999999999999991	0.2162999999999999645
6.6.1	mac	0	2023-12-01	11:53:48	1	1	1	experiment	1	feedback	350	640	700	390	1	16	15	15	5	erasure	erasure	erasure	0	1			1	2	2455	21	1	232	1	0	2	111	30	107.2800000000000011369	1490	1	10	10	0.7206392380689827792	0.6999999999999999556	1	22	21	36	6	96	126	15	1	cloud	wind	Planet1A.png	Ship1A.png	Mushroom1A.png	0.0029999999999999996	0.2192999999999999672
6.6.1	mac	0	2023-12-01	11:53:48	1	1	1	experiment	1	clock	230	690	1411	390	1	16	16	16	6	erasure	erasure	erasure	0	2			1	2	2455	21	1	232	1	0	2	111	77			1				0.6999999999999999556	1	22	21	36	6	96	126	16	1	cloud	wind	Planet1A.png	Ship1A.png	Mushroom1A.png	0.0029999999999999996	0.2192999999999999672
6.6.1	mac	0	2023-12-01	11:53:48	1	1	1	experiment	1	feedback	230	690	700	290	1	17	16	16	6	erasure	erasure	erasure	0	2			1	2	2455	21	1	232	2	0	2	111	77	108.7920000000000015916	1511	1	10	1	0.3379426054512016941	0.6999999999999999556	1	22	21	36	6	96	126	16	1	cloud	wind	Planet1A.png	Ship1A.png	Mushroom1A.png	0.0029999999999999996	0.2222999999999999698
6.6.1	mac	0	2023-12-01	11:53:48	1	1	1	experiment	1	clock	360	520	375	290	1	17	17	17	7	erasure	no erasure	erasure	0	3			1	2	2455	21	0	232		1	1	111	16			1				0.6999999999999999556		34.6792452830188722146	21	36	6	96	126	17	1	cloud	wind	Planet1A.png	Ship1A.png	Mushroom1A.png	0.0029999999999999996	0.2222999999999999698
6.6.1	mac	0	2023-12-01	11:53:48	1	1	1	experiment	1	feedback	360	520	700	270	1	18	17	17	7	erasure	no erasure	erasure	0	3			1	2	2455	21	0	232		1	1	111	16	174.5999999999999943157	2425	31	31	31	0.0705409967504770086	0.6999999999999999556		34.6792452830188722146	21	36	6	96	126	17	1	cloud	wind	Planet1A.png	Ship1A.png	Mushroom1A.png	0.0092999999999999992	0.2315999999999999726
6.6.1	mac	0	2023-12-01	11:53:48	1	1	1	experiment	1	clock	120	580	273	270	1	18	18	18	8	erasure	no erasure	erasure	0	4			1	2	2455	21	0	232		1	0	111	55			31				0.6999999999999999556		41.4150943396226409732	21	36	6	96	126	18	1	cloud	wind	Planet1A.png	Ship1A.png	Mushroom1A.png	0.0092999999999999992	0.2315999999999999726
6.6.1	mac	0	2023-12-01	11:53:48	1	1	1	experiment	1	feedback	120	580	700	430	1	19	18	18	8	erasure	no erasure	erasure	0	4			1	2	2455	21	0	232		1	0	111	55	307.6560000000000059117	4273	97	97	97	0.4700092227361186703	0.6999999999999999556		41.4150943396226409732	21	36	6	96	126	18	1	cloud	wind	Planet1A.png	Ship1A.png	Mushroom1A.png	0.0290999999999999974	0.2606999999999999873
6.6.1	mac	0	2023-12-01	11:53:48	1	1	1	experiment	1	clock	370	670	261	430	1	19	19	19	9	erasure	erasure	erasure	1	1			1	3	2455	34	1	232	0	0	2	124	12			97				0.6999999999999999556	0	33	34	49	19	109	139	19	1	cloud	wind	Planet1A.png	Ship1A.png	Mushroom1A.png	0.0290999999999999974	0.2606999999999999873
6.6.1	mac	0	2023-12-01	11:53:48	1	1	1	experiment	1	feedback	370	670	700	600	1	20	19	19	9	erasure	erasure	erasure	0	1			1	3	2455	34	1	232	0	0	2	124	12	151.9919999999999902229	2111	24	24	24	0.1406008696976585592	0.6999999999999999556	0	33	34	49	19	109	139	19	1	cloud	wind	Planet1A.png	Ship1A.png	Mushroom1A.png	0.0071999999999999998	0.2678999999999999715
6.6.1	mac	0	2023-12-01	11:53:48	1	1	1	experiment	1	clock	220	680	3601	600	1	20	20	20	10	erasure	erasure	erasure	0	2			1	3	2455	34	1	232	0	0	2	124	37			24				0.6999999999999999556	0	33	34	49	19	109	139	20	1	cloud	wind	Planet1A.png	Ship1A.png	Mushroom1A.png	0.0071999999999999998	0.2678999999999999715
6.6.1	mac	0	2023-12-01	11:53:48	1	1	1	experiment	1	feedback	220	680	700	200	1	21	20	20	10	erasure	erasure	erasure	0	2			1	3	2455	34	1	232	1	0	2	124	37	122.471999999999994202	1701	7	10	10	0.9408276132170175776	0.6999999999999999556	1	33	34	49	19	109	139	20	1	cloud	wind	Planet1A.png	Ship1A.png	Mushroom1A.png	0.0029999999999999996	0.2708999999999999742
6.6.1	mac	0	2023-12-01	11:53:48	1	1	1	experiment	1	clock	490	560	693	200	1	21	21	21	1	no erasure	no erasure	erasure	0	3			1	3	2455	34	0	232		0	2	124	49			7				0.6999999999999999556		41.9491525423728788269	34	49	19	109	139	21	1	cloud	wind	Planet1A.png	Ship1A.png	Mushroom1A.png	0.0029999999999999996	0.2708999999999999742
