build	computer.platform	computer.touch	date	time	subject	group	sessionid	blockcode	blocknum	trialcode	list.ITI.currentvalue	list.preClockFreeze.currentvalue	latency	list.ISI.currentvalue	block	trialCount	trial	run_trial	block_trial	block_type	trial_type	last_block_type	generate_new_erasure	trial_since_erasure_gen	att_index	era_index	x_final	y_final	seed	list.era_loc.currentvalue	has_erasure	list.att_loc.currentvalue	n_clicks	timeout_block	timeouts_remain	stim_center_deg	startPos	pos_shifted	rt_shifted	mag	inc_rg	inc	rng	freq	choose_stim	erasure_value	current_erasure	curr_min	curr_max	to_h	to_l	smooth_kernel2	rt_index	erasure_RT	right_index	left_index	stim_left_deg	stim_right_deg	trial	erasure_blocks	attentional_control	local_uncertainty	picture.planet.item.1	picture.animatedCircle.item.1	picture.feedback2.items.1	picture.stim.item.1	Earnings	totalEarnings
6.6.1	mac	0	2023-12-21	15:57:31	1	1	1	experiment	1	getValueVector	0.2000000000000000111		0		1	1	1	1	1	no erasure	no erasure		1		0	0	1	55	5815		0			0	2		0			0				0.6999999999999999556															1	0	wind	cloud	Planet1A.png	Ship1A.png	blank.png	blank.png		0
6.6.1	mac	0	2023-12-21	15:57:31	1	1	1	experiment	1	getValueVector	0.2000000000000000111		0		1	1	1	1	1	no erasure	no erasure		1		0	0	2	55	5815		0			0	2		0			0				0.6999999999999999556															1	0	wind	cloud	Planet1A.png	Ship1A.png	blank.png	blank.png		0
6.6.1	mac	0	2023-12-21	15:57:31	1	1	1	experiment	1	getValueVector	0.2000000000000000111		0		1	1	1	1	1	no erasure	no erasure		1		0	0	3	53	5815		0			0	2		0			0				0.6999999999999999556															1	0	wind	cloud	Planet1A.png	Ship1A.png	blank.png	blank.png		0
6.6.1	mac	0	2023-12-21	15:57:31	1	1	1	experiment	1	getValueVector	0.2000000000000000111		0		1	1	1	1	1	no erasure	no erasure		1		0	0	4	51	5815		0			0	2		0			0				0.6999999999999999556															1	0	wind	cloud	Planet1A.png	Ship1A.png	blank.png	blank.png		0
6.6.1	mac	0	2023-12-21	15:57:31	1	1	1	experiment	1	getValueVector	0.2000000000000000111		0		1	1	1	1	1	no erasure	no erasure		1		0	0	5	48	5815		0			0	2		0			0				0.6999999999999999556															1	0	wind	cloud	Planet1A.png	Ship1A.png	blank.png	blank.png		0
6.6.1	mac	0	2023-12-21	15:57:31	1	1	1	experiment	1	getValueVector	0.2000000000000000111		0		1	1	1	1	1	no erasure	no erasure		1		0	0	6	46	5815		0			0	2		0			0				0.6999999999999999556															1	0	wind	cloud	Planet1A.png	Ship1A.png	blank.png	blank.png		0
6.6.1	mac	0	2023-12-21	15:57:31	1	1	1	experiment	1	getValueVector	0.2000000000000000111		0		1	1	1	1	1	no erasure	no erasure		1		0	0	7	44	5815		0			0	2		0			0				0.6999999999999999556															1	0	wind	cloud	Planet1A.png	Ship1A.png	blank.png	blank.png		0
6.6.1	mac	0	2023-12-21	15:57:31	1	1	1	experiment	1	getValueVector	0.2000000000000000111		0		1	1	1	1	1	no erasure	no erasure		1		0	0	8	42	5815		0			0	2		0			0				0.6999999999999999556															1	0	wind	cloud	Planet1A.png	Ship1A.png	blank.png	blank.png		0
6.6.1	mac	0	2023-12-21	15:57:31	1	1	1	experiment	1	getValueVector	0.2000000000000000111		0		1	1	1	1	1	no erasure	no erasure		1		0	0	9	40	5815		0			0	2		0			0				0.6999999999999999556															1	0	wind	cloud	Planet1A.png	Ship1A.png	blank.png	blank.png		0
6.6.1	mac	0	2023-12-21	15:57:31	1	1	1	experiment	1	getValueVector	0.2000000000000000111		0		1	1	1	1	1	no erasure	no erasure		1		0	0	10	38	5815		0			0	2		0			0				0.6999999999999999556															1	0	wind	cloud	Planet1A.png	Ship1A.png	blank.png	blank.png		0
6.6.1	mac	0	2023-12-21	15:57:31	1	1	1	experiment	1	getValueVector	0.2000000000000000111		0		1	1	1	1	1	no erasure	no erasure		1		0	0	11	36	5815		0			0	2		0			0				0.6999999999999999556															1	0	wind	cloud	Planet1A.png	Ship1A.png	blank.png	blank.png		0
6.6.1	mac	0	2023-12-21	15:57:31	1	1	1	experiment	1	getValueVector	0.2000000000000000111		0		1	1	1	1	1	no erasure	no erasure		1		0	0	12	34	5815		0			0	2		0			0				0.6999999999999999556															1	0	wind	cloud	Planet1A.png	Ship1A.png	blank.png	blank.png		0
6.6.1	mac	0	2023-12-21	15:57:31	1	1	1	experiment	1	getValueVector	0.2000000000000000111		0		1	1	1	1	1	no erasure	no erasure		1		0	0	13	33	5815		0			0	2		0			0				0.6999999999999999556															1	0	wind	cloud	Planet1A.png	Ship1A.png	blank.png	blank.png		0
6.6.1	mac	0	2023-12-21	15:57:31	1	1	1	experiment	1	getValueVector	0.2000000000000000111		0		1	1	1	1	1	no erasure	no erasure		1		0	0	14	31	5815		0			0	2		0			0				0.6999999999999999556															1	0	wind	cloud	Planet1A.png	Ship1A.png	blank.png	blank.png		0
6.6.1	mac	0	2023-12-21	15:57:31	1	1	1	experiment	1	getValueVector	0.2000000000000000111		0		1	1	1	1	1	no erasure	no erasure		1		0	0	15	29	5815		0			0	2		0			0				0.6999999999999999556															1	0	wind	cloud	Planet1A.png	Ship1A.png	blank.png	blank.png		0
6.6.1	mac	0	2023-12-21	15:57:31	1	1	1	experiment	1	getValueVector	0.2000000000000000111		0		1	1	1	1	1	no erasure	no erasure		1		0	0	16	28	5815		0			0	2		0			0				0.6999999999999999556															1	0	wind	cloud	Planet1A.png	Ship1A.png	blank.png	blank.png		0
6.6.1	mac	0	2023-12-21	15:57:31	1	1	1	experiment	1	getValueVector	0.2000000000000000111		0		1	1	1	1	1	no erasure	no erasure		1		0	0	17	26	5815		0			0	2		0			0				0.6999999999999999556															1	0	wind	cloud	Planet1A.png	Ship1A.png	blank.png	blank.png		0
6.6.1	mac	0	2023-12-21	15:57:31	1	1	1	experiment	1	getValueVector	0.2000000000000000111		0		1	1	1	1	1	no erasure	no erasure		1		0	0	18	25	5815		0			0	2		0			0				0.6999999999999999556															1	0	wind	cloud	Planet1A.png	Ship1A.png	blank.png	blank.png		0
6.6.1	mac	0	2023-12-21	15:57:31	1	1	1	experiment	1	getValueVector	0.2000000000000000111		0		1	1	1	1	1	no erasure	no erasure		1		0	0	19	23	5815		0			0	2		0			0				0.6999999999999999556															1	0	wind	cloud	Planet1A.png	Ship1A.png	blank.png	blank.png		0
6.6.1	mac	0	2023-12-21	15:57:31	1	1	1	experiment	1	getValueVector	0.2000000000000000111		0		1	1	1	1	1	no erasure	no erasure		1		0	0	20	22	5815		0			0	2		0			0				0.6999999999999999556															1	0	wind	cloud	Planet1A.png	Ship1A.png	blank.png	blank.png		0
6.6.1	mac	0	2023-12-21	15:57:31	1	1	1	experiment	1	getValueVector	0.2000000000000000111		0		1	1	1	1	1	no erasure	no erasure		1		0	0	21	20	5815		0			0	2		0			0				0.6999999999999999556															1	0	wind	cloud	Planet1A.png	Ship1A.png	blank.png	blank.png		0
6.6.1	mac	0	2023-12-21	15:57:31	1	1	1	experiment	1	getValueVector	0.2000000000000000111		0		1	1	1	1	1	no erasure	no erasure		1		0	0	22	19	5815		0			0	2		0			0				0.6999999999999999556															1	0	wind	cloud	Planet1A.png	Ship1A.png	blank.png	blank.png		0
6.6.1	mac	0	2023-12-21	15:57:31	1	1	1	experiment	1	getValueVector	0.2000000000000000111		0		1	1	1	1	1	no erasure	no erasure		1		0	0	23	18	5815		0			0	2		0			0				0.6999999999999999556															1	0	wind	cloud	Planet1A.png	Ship1A.png	blank.png	blank.png		0
6.6.1	mac	0	2023-12-21	15:57:31	1	1	1	experiment	1	getValueVector	0.2000000000000000111		0		1	1	1	1	1	no erasure	no erasure		1		0	0	24	17	5815		0			0	2		0			0				0.6999999999999999556															1	0	wind	cloud	Planet1A.png	Ship1A.png	blank.png	blank.png		0
6.6.1	mac	0	2023-12-21	15:57:31	1	1	1	experiment	1	getValueVector	0.2000000000000000111		0		1	1	1	1	1	no erasure	no erasure		1		0	0	25	16	5815		0			0	2		0			0				0.6999999999999999556															1	0	wind	cloud	Planet1A.png	Ship1A.png	blank.png	blank.png		0
6.6.1	mac	0	2023-12-21	15:57:31	1	1	1	experiment	1	getValueVector	0.2000000000000000111		0		1	1	1	1	1	no erasure	no erasure		1		0	0	26	15	5815		0			0	2		0			0				0.6999999999999999556															1	0	wind	cloud	Planet1A.png	Ship1A.png	blank.png	blank.png		0
6.6.1	mac	0	2023-12-21	15:57:31	1	1	1	experiment	1	getValueVector	0.2000000000000000111		0		1	1	1	1	1	no erasure	no erasure		1		0	0	27	14	5815		0			0	2		0			0				0.6999999999999999556															1	0	wind	cloud	Planet1A.png	Ship1A.png	blank.png	blank.png		0
6.6.1	mac	0	2023-12-21	15:57:31	1	1	1	experiment	1	getValueVector	0.2000000000000000111		0		1	1	1	1	1	no erasure	no erasure		1		0	0	28	13	5815		0			0	2		0			0				0.6999999999999999556															1	0	wind	cloud	Planet1A.png	Ship1A.png	blank.png	blank.png		0
6.6.1	mac	0	2023-12-21	15:57:31	1	1	1	experiment	1	getValueVector	0.2000000000000000111		0		1	1	1	1	1	no erasure	no erasure		1		0	0	29	12	5815		0			0	2		0			0				0.6999999999999999556															1	0	wind	cloud	Planet1A.png	Ship1A.png	blank.png	blank.png		0
6.6.1	mac	0	2023-12-21	15:57:31	1	1	1	experiment	1	getValueVector	0.2000000000000000111		0		1	1	1	1	1	no erasure	no erasure		1		0	0	30	11	5815		0			0	2		0			0				0.6999999999999999556															1	0	wind	cloud	Planet1A.png	Ship1A.png	blank.png	blank.png		0
6.6.1	mac	0	2023-12-21	15:57:31	1	1	1	experiment	1	getValueVector	0.2000000000000000111		0		1	1	1	1	1	no erasure	no erasure		1		0	0	31	10	5815		0			0	2		0			0				0.6999999999999999556															1	0	wind	cloud	Planet1A.png	Ship1A.png	blank.png	blank.png		0
6.6.1	mac	0	2023-12-21	15:57:31	1	1	1	experiment	1	getValueVector	0.2000000000000000111		0		1	1	1	1	1	no erasure	no erasure		1		0	0	32	9	5815		0			0	2		0			0				0.6999999999999999556															1	0	wind	cloud	Planet1A.png	Ship1A.png	blank.png	blank.png		0
6.6.1	mac	0	2023-12-21	15:57:31	1	1	1	experiment	1	getValueVector	0.2000000000000000111		0		1	1	1	1	1	no erasure	no erasure		1		0	0	33	8	5815		0			0	2		0			0				0.6999999999999999556															1	0	wind	cloud	Planet1A.png	Ship1A.png	blank.png	blank.png		0
6.6.1	mac	0	2023-12-21	15:57:31	1	1	1	experiment	1	getValueVector	0.2000000000000000111		0		1	1	1	1	1	no erasure	no erasure		1		0	0	34	8	5815		0			0	2		0			0				0.6999999999999999556															1	0	wind	cloud	Planet1A.png	Ship1A.png	blank.png	blank.png		0
6.6.1	mac	0	2023-12-21	15:57:31	1	1	1	experiment	1	getValueVector	0.2000000000000000111		0		1	1	1	1	1	no erasure	no erasure		1		0	0	35	7	5815		0			0	2		0			0				0.6999999999999999556															1	0	wind	cloud	Planet1A.png	Ship1A.png	blank.png	blank.png		0
6.6.1	mac	0	2023-12-21	15:57:31	1	1	1	experiment	1	getValueVector	0.2000000000000000111		0		1	1	1	1	1	no erasure	no erasure		1		0	0	36	6	5815		0			0	2		0			0				0.6999999999999999556															1	0	wind	cloud	Planet1A.png	Ship1A.png	blank.png	blank.png		0
6.6.1	mac	0	2023-12-21	15:57:31	1	1	1	experiment	1	getValueVector	0.2000000000000000111		0		1	1	1	1	1	no erasure	no erasure		1		0	0	37	6	5815		0			0	2		0			0				0.6999999999999999556															1	0	wind	cloud	Planet1A.png	Ship1A.png	blank.png	blank.png		0
6.6.1	mac	0	2023-12-21	15:57:31	1	1	1	experiment	1	getValueVector	0.2000000000000000111		0		1	1	1	1	1	no erasure	no erasure		1		0	0	38	5	5815		0			0	2		0			0				0.6999999999999999556															1	0	wind	cloud	Planet1A.png	Ship1A.png	blank.png	blank.png		0
6.6.1	mac	0	2023-12-21	15:57:31	1	1	1	experiment	1	getValueVector	0.2000000000000000111		0		1	1	1	1	1	no erasure	no erasure		1		0	0	39	5	5815		0			0	2		0			0				0.6999999999999999556															1	0	wind	cloud	Planet1A.png	Ship1A.png	blank.png	blank.png		0
6.6.1	mac	0	2023-12-21	15:57:31	1	1	1	experiment	1	getValueVector	0.2000000000000000111		0		1	1	1	1	1	no erasure	no erasure		1		0	0	40	4	5815		0			0	2		0			0				0.6999999999999999556															1	0	wind	cloud	Planet1A.png	Ship1A.png	blank.png	blank.png		0
6.6.1	mac	0	2023-12-21	15:57:31	1	1	1	experiment	1	getValueVector	0.2000000000000000111		0		1	1	1	1	1	no erasure	no erasure		1		0	0	41	4	5815		0			0	2		0			0				0.6999999999999999556															1	0	wind	cloud	Planet1A.png	Ship1A.png	blank.png	blank.png		0
6.6.1	mac	0	2023-12-21	15:57:31	1	1	1	experiment	1	getValueVector	0.2000000000000000111		0		1	1	1	1	1	no erasure	no erasure		1		0	0	42	3	5815		0			0	2		0			0				0.6999999999999999556															1	0	wind	cloud	Planet1A.png	Ship1A.png	blank.png	blank.png		0
6.6.1	mac	0	2023-12-21	15:57:31	1	1	1	experiment	1	getValueVector	0.2000000000000000111		0		1	1	1	1	1	no erasure	no erasure		1		0	0	43	3	5815		0			0	2		0			0				0.6999999999999999556															1	0	wind	cloud	Planet1A.png	Ship1A.png	blank.png	blank.png		0
6.6.1	mac	0	2023-12-21	15:57:31	1	1	1	experiment	1	getValueVector	0.2000000000000000111		0		1	1	1	1	1	no erasure	no erasure		1		0	0	44	3	5815		0			0	2		0			0				0.6999999999999999556															1	0	wind	cloud	Planet1A.png	Ship1A.png	blank.png	blank.png		0
6.6.1	mac	0	2023-12-21	15:57:31	1	1	1	experiment	1	getValueVector	0.2000000000000000111		0		1	1	1	1	1	no erasure	no erasure		1		0	0	45	2	5815		0			0	2		0			0				0.6999999999999999556															1	0	wind	cloud	Planet1A.png	Ship1A.png	blank.png	blank.png		0
6.6.1	mac	0	2023-12-21	15:57:31	1	1	1	experiment	1	getValueVector	0.2000000000000000111		0		1	1	1	1	1	no erasure	no erasure		1		0	0	46	2	5815		0			0	2		0			0				0.6999999999999999556															1	0	wind	cloud	Planet1A.png	Ship1A.png	blank.png	blank.png		0
6.6.1	mac	0	2023-12-21	15:57:31	1	1	1	experiment	1	getValueVector	0.2000000000000000111		0		1	1	1	1	1	no erasure	no erasure		1		0	0	47	2	5815		0			0	2		0			0				0.6999999999999999556															1	0	wind	cloud	Planet1A.png	Ship1A.png	blank.png	blank.png		0
6.6.1	mac	0	2023-12-21	15:57:31	1	1	1	experiment	1	getValueVector	0.2000000000000000111		0		1	1	1	1	1	no erasure	no erasure		1		0	0	48	2	5815		0			0	2		0			0				0.6999999999999999556															1	0	wind	cloud	Planet1A.png	Ship1A.png	blank.png	blank.png		0
6.6.1	mac	0	2023-12-21	15:57:31	1	1	1	experiment	1	getValueVector	0.2000000000000000111		0		1	1	1	1	1	no erasure	no erasure		1		0	0	49	1	5815		0			0	2		0			0				0.6999999999999999556															1	0	wind	cloud	Planet1A.png	Ship1A.png	blank.png	blank.png		0
6.6.1	mac	0	2023-12-21	15:57:31	1	1	1	experiment	1	getValueVector	0.2000000000000000111		0		1	1	1	1	1	no erasure	no erasure		1		0	0	50	1	5815		0			0	2		0			0				0.6999999999999999556															1	0	wind	cloud	Planet1A.png	Ship1A.png	blank.png	blank.png		0
6.6.1	mac	0	2023-12-21	15:57:31	1	1	1	experiment	1	getValueVector	0.2000000000000000111		0		1	1	1	1	1	no erasure	no erasure		1		0	0	51	1	5815		0			0	2		0			0				0.6999999999999999556															1	0	wind	cloud	Planet1A.png	Ship1A.png	blank.png	blank.png		0
6.6.1	mac	0	2023-12-21	15:57:31	1	1	1	experiment	1	getValueVector	0.2000000000000000111		0		1	1	1	1	1	no erasure	no erasure		1		0	0	52	1	5815		0			0	2		0			0				0.6999999999999999556															1	0	wind	cloud	Planet1A.png	Ship1A.png	blank.png	blank.png		0
6.6.1	mac	0	2023-12-21	15:57:31	1	1	1	experiment	1	getValueVector	0.2000000000000000111		0		1	1	1	1	1	no erasure	no erasure		1		0	0	53	1	5815		0			0	2		0			0				0.6999999999999999556															1	0	wind	cloud	Planet1A.png	Ship1A.png	blank.png	blank.png		0
6.6.1	mac	0	2023-12-21	15:57:31	1	1	1	experiment	1	getValueVector	0.2000000000000000111		0		1	1	1	1	1	no erasure	no erasure		1		0	0	54	1	5815		0			0	2		0			0				0.6999999999999999556															1	0	wind	cloud	Planet1A.png	Ship1A.png	blank.png	blank.png		0
6.6.1	mac	0	2023-12-21	15:57:31	1	1	1	experiment	1	getValueVector	0.2000000000000000111		0		1	1	1	1	1	no erasure	no erasure		1		0	0	55	1	5815		0			0	2		0			0				0.6999999999999999556															1	0	wind	cloud	Planet1A.png	Ship1A.png	blank.png	blank.png		0
6.6.1	mac	0	2023-12-21	15:57:31	1	1	1	experiment	1	getValueVector	0.2000000000000000111		0		1	1	1	1	1	no erasure	no erasure		1		0	0	56	1	5815		0			0	2		0			0				0.6999999999999999556															1	0	wind	cloud	Planet1A.png	Ship1A.png	blank.png	blank.png		0
6.6.1	mac	0	2023-12-21	15:57:31	1	1	1	experiment	1	getValueVector	0.2000000000000000111		0		1	1	1	1	1	no erasure	no erasure		1		0	0	57	1	5815		0			0	2		0			0				0.6999999999999999556															1	0	wind	cloud	Planet1A.png	Ship1A.png	blank.png	blank.png		0
6.6.1	mac	0	2023-12-21	15:57:31	1	1	1	experiment	1	getValueVector	0.2000000000000000111		0		1	1	1	1	1	no erasure	no erasure		1		0	0	58	1	5815		0			0	2		0			0				0.6999999999999999556															1	0	wind	cloud	Planet1A.png	Ship1A.png	blank.png	blank.png		0
6.6.1	mac	0	2023-12-21	15:57:31	1	1	1	experiment	1	getValueVector	0.2000000000000000111		0		1	1	1	1	1	no erasure	no erasure		1		0	0	59	1	5815		0			0	2		0			0				0.6999999999999999556															1	0	wind	cloud	Planet1A.png	Ship1A.png	blank.png	blank.png		0
6.6.1	mac	0	2023-12-21	15:57:31	1	1	1	experiment	1	getValueVector	0.2000000000000000111		0		1	1	1	1	1	no erasure	no erasure		1		0	0	60	1	5815		0			0	2		0			0				0.6999999999999999556															1	0	wind	cloud	Planet1A.png	Ship1A.png	blank.png	blank.png		0
6.6.1	mac	0	2023-12-21	15:57:31	1	1	1	experiment	1	getValueVector	0.2000000000000000111		0		1	1	1	1	1	no erasure	no erasure		1		0	0	61	2	5815		0			0	2		0			0				0.6999999999999999556															1	0	wind	cloud	Planet1A.png	Ship1A.png	blank.png	blank.png		0
6.6.1	mac	0	2023-12-21	15:57:31	1	1	1	experiment	1	getValueVector	0.2000000000000000111		0		1	1	1	1	1	no erasure	no erasure		1		0	0	62	2	5815		0			0	2		0			0				0.6999999999999999556															1	0	wind	cloud	Planet1A.png	Ship1A.png	blank.png	blank.png		0
6.6.1	mac	0	2023-12-21	15:57:31	1	1	1	experiment	1	getValueVector	0.2000000000000000111		0		1	1	1	1	1	no erasure	no erasure		1		0	0	63	2	5815		0			0	2		0			0				0.6999999999999999556															1	0	wind	cloud	Planet1A.png	Ship1A.png	blank.png	blank.png		0
6.6.1	mac	0	2023-12-21	15:57:31	1	1	1	experiment	1	getValueVector	0.2000000000000000111		0		1	1	1	1	1	no erasure	no erasure		1		0	0	64	2	5815		0			0	2		0			0				0.6999999999999999556															1	0	wind	cloud	Planet1A.png	Ship1A.png	blank.png	blank.png		0
6.6.1	mac	0	2023-12-21	15:57:31	1	1	1	experiment	1	getValueVector	0.2000000000000000111		0		1	1	1	1	1	no erasure	no erasure		1		0	0	65	2	5815		0			0	2		0			0				0.6999999999999999556															1	0	wind	cloud	Planet1A.png	Ship1A.png	blank.png	blank.png		0
6.6.1	mac	0	2023-12-21	15:57:31	1	1	1	experiment	1	getValueVector	0.2000000000000000111		0		1	1	1	1	1	no erasure	no erasure		1		0	0	66	3	5815		0			0	2		0			0				0.6999999999999999556															1	0	wind	cloud	Planet1A.png	Ship1A.png	blank.png	blank.png		0
6.6.1	mac	0	2023-12-21	15:57:31	1	1	1	experiment	1	getValueVector	0.2000000000000000111		0		1	1	1	1	1	no erasure	no erasure		1		0	0	67	3	5815		0			0	2		0			0				0.6999999999999999556															1	0	wind	cloud	Planet1A.png	Ship1A.png	blank.png	blank.png		0
6.6.1	mac	0	2023-12-21	15:57:31	1	1	1	experiment	1	getValueVector	0.2000000000000000111		0		1	1	1	1	1	no erasure	no erasure		1		0	0	68	3	5815		0			0	2		0			0				0.6999999999999999556															1	0	wind	cloud	Planet1A.png	Ship1A.png	blank.png	blank.png		0
6.6.1	mac	0	2023-12-21	15:57:31	1	1	1	experiment	1	getValueVector	0.2000000000000000111		0		1	1	1	1	1	no erasure	no erasure		1		0	0	69	4	5815		0			0	2		0			0				0.6999999999999999556															1	0	wind	cloud	Planet1A.png	Ship1A.png	blank.png	blank.png		0
6.6.1	mac	0	2023-12-21	15:57:31	1	1	1	experiment	1	getValueVector	0.2000000000000000111		0		1	1	1	1	1	no erasure	no erasure		1		0	0	70	4	5815		0			0	2		0			0				0.6999999999999999556															1	0	wind	cloud	Planet1A.png	Ship1A.png	blank.png	blank.png		0
6.6.1	mac	0	2023-12-21	15:57:31	1	1	1	experiment	1	getValueVector	0.2000000000000000111		0		1	1	1	1	1	no erasure	no erasure		1		0	0	71	4	5815		0			0	2		0			0				0.6999999999999999556															1	0	wind	cloud	Planet1A.png	Ship1A.png	blank.png	blank.png		0
6.6.1	mac	0	2023-12-21	15:57:31	1	1	1	experiment	1	getValueVector	0.2000000000000000111		0		1	1	1	1	1	no erasure	no erasure		1		0	0	72	5	5815		0			0	2		0			0				0.6999999999999999556															1	0	wind	cloud	Planet1A.png	Ship1A.png	blank.png	blank.png		0
6.6.1	mac	0	2023-12-21	15:57:31	1	1	1	experiment	1	getValueVector	0.2000000000000000111		0		1	1	1	1	1	no erasure	no erasure		1		0	0	73	5	5815		0			0	2		0			0				0.6999999999999999556															1	0	wind	cloud	Planet1A.png	Ship1A.png	blank.png	blank.png		0
6.6.1	mac	0	2023-12-21	15:57:31	1	1	1	experiment	1	getValueVector	0.2000000000000000111		0		1	1	1	1	1	no erasure	no erasure		1		0	0	74	5	5815		0			0	2		0			0				0.6999999999999999556															1	0	wind	cloud	Planet1A.png	Ship1A.png	blank.png	blank.png		0
6.6.1	mac	0	2023-12-21	15:57:31	1	1	1	experiment	1	getValueVector	0.2000000000000000111		0		1	1	1	1	1	no erasure	no erasure		1		0	0	75	6	5815		0			0	2		0			0				0.6999999999999999556															1	0	wind	cloud	Planet1A.png	Ship1A.png	blank.png	blank.png		0
6.6.1	mac	0	2023-12-21	15:57:31	1	1	1	experiment	1	getValueVector	0.2000000000000000111		0		1	1	1	1	1	no erasure	no erasure		1		0	0	76	6	5815		0			0	2		0			0				0.6999999999999999556															1	0	wind	cloud	Planet1A.png	Ship1A.png	blank.png	blank.png		0
6.6.1	mac	0	2023-12-21	15:57:31	1	1	1	experiment	1	getValueVector	0.2000000000000000111		0		1	1	1	1	1	no erasure	no erasure		1		0	0	77	7	5815		0			0	2		0			0				0.6999999999999999556															1	0	wind	cloud	Planet1A.png	Ship1A.png	blank.png	blank.png		0
6.6.1	mac	0	2023-12-21	15:57:31	1	1	1	experiment	1	getValueVector	0.2000000000000000111		0		1	1	1	1	1	no erasure	no erasure		1		0	0	78	7	5815		0			0	2		0			0				0.6999999999999999556															1	0	wind	cloud	Planet1A.png	Ship1A.png	blank.png	blank.png		0
6.6.1	mac	0	2023-12-21	15:57:31	1	1	1	experiment	1	getValueVector	0.2000000000000000111		0		1	1	1	1	1	no erasure	no erasure		1		0	0	79	7	5815		0			0	2		0			0				0.6999999999999999556															1	0	wind	cloud	Planet1A.png	Ship1A.png	blank.png	blank.png		0
6.6.1	mac	0	2023-12-21	15:57:31	1	1	1	experiment	1	getValueVector	0.2000000000000000111		0		1	1	1	1	1	no erasure	no erasure		1		0	0	80	8	5815		0			0	2		0			0				0.6999999999999999556															1	0	wind	cloud	Planet1A.png	Ship1A.png	blank.png	blank.png		0
6.6.1	mac	0	2023-12-21	15:57:31	1	1	1	experiment	1	getValueVector	0.2000000000000000111		0		1	1	1	1	1	no erasure	no erasure		1		0	0	81	8	5815		0			0	2		0			0				0.6999999999999999556															1	0	wind	cloud	Planet1A.png	Ship1A.png	blank.png	blank.png		0
6.6.1	mac	0	2023-12-21	15:57:31	1	1	1	experiment	1	getValueVector	0.2000000000000000111		0		1	1	1	1	1	no erasure	no erasure		1		0	0	82	9	5815		0			0	2		0			0				0.6999999999999999556															1	0	wind	cloud	Planet1A.png	Ship1A.png	blank.png	blank.png		0
6.6.1	mac	0	2023-12-21	15:57:31	1	1	1	experiment	1	getValueVector	0.2000000000000000111		0		1	1	1	1	1	no erasure	no erasure		1		0	0	83	9	5815		0			0	2		0			0				0.6999999999999999556															1	0	wind	cloud	Planet1A.png	Ship1A.png	blank.png	blank.png		0
6.6.1	mac	0	2023-12-21	15:57:31	1	1	1	experiment	1	getValueVector	0.2000000000000000111		0		1	1	1	1	1	no erasure	no erasure		1		0	0	84	10	5815		0			0	2		0			0				0.6999999999999999556															1	0	wind	cloud	Planet1A.png	Ship1A.png	blank.png	blank.png		0
6.6.1	mac	0	2023-12-21	15:57:31	1	1	1	experiment	1	getValueVector	0.2000000000000000111		0		1	1	1	1	1	no erasure	no erasure		1		0	0	85	10	5815		0			0	2		0			0				0.6999999999999999556															1	0	wind	cloud	Planet1A.png	Ship1A.png	blank.png	blank.png		0
6.6.1	mac	0	2023-12-21	15:57:31	1	1	1	experiment	1	getValueVector	0.2000000000000000111		0		1	1	1	1	1	no erasure	no erasure		1		0	0	86	11	5815		0			0	2		0			0				0.6999999999999999556															1	0	wind	cloud	Planet1A.png	Ship1A.png	blank.png	blank.png		0
6.6.1	mac	0	2023-12-21	15:57:31	1	1	1	experiment	1	getValueVector	0.2000000000000000111		0		1	1	1	1	1	no erasure	no erasure		1		0	0	87	11	5815		0			0	2		0			0				0.6999999999999999556															1	0	wind	cloud	Planet1A.png	Ship1A.png	blank.png	blank.png		0
6.6.1	mac	0	2023-12-21	15:57:31	1	1	1	experiment	1	getValueVector	0.2000000000000000111		0		1	1	1	1	1	no erasure	no erasure		1		0	0	88	11	5815		0			0	2		0			0				0.6999999999999999556															1	0	wind	cloud	Planet1A.png	Ship1A.png	blank.png	blank.png		0
6.6.1	mac	0	2023-12-21	15:57:31	1	1	1	experiment	1	getValueVector	0.2000000000000000111		0		1	1	1	1	1	no erasure	no erasure		1		0	0	89	12	5815		0			0	2		0			0				0.6999999999999999556															1	0	wind	cloud	Planet1A.png	Ship1A.png	blank.png	blank.png		0
6.6.1	mac	0	2023-12-21	15:57:31	1	1	1	experiment	1	getValueVector	0.2000000000000000111		0		1	1	1	1	1	no erasure	no erasure		1		0	0	90	12	5815		0			0	2		0			0				0.6999999999999999556															1	0	wind	cloud	Planet1A.png	Ship1A.png	blank.png	blank.png		0
6.6.1	mac	0	2023-12-21	15:57:31	1	1	1	experiment	1	getValueVector	0.2000000000000000111		0		1	1	1	1	1	no erasure	no erasure		1		0	0	91	13	5815		0			0	2		0			0				0.6999999999999999556															1	0	wind	cloud	Planet1A.png	Ship1A.png	blank.png	blank.png		0
6.6.1	mac	0	2023-12-21	15:57:31	1	1	1	experiment	1	getValueVector	0.2000000000000000111		0		1	1	1	1	1	no erasure	no erasure		1		0	0	92	13	5815		0			0	2		0			0				0.6999999999999999556															1	0	wind	cloud	Planet1A.png	Ship1A.png	blank.png	blank.png		0
6.6.1	mac	0	2023-12-21	15:57:31	1	1	1	experiment	1	getValueVector	0.2000000000000000111		0		1	1	1	1	1	no erasure	no erasure		1		0	0	93	14	5815		0			0	2		0			0				0.6999999999999999556															1	0	wind	cloud	Planet1A.png	Ship1A.png	blank.png	blank.png		0
6.6.1	mac	0	2023-12-21	15:57:31	1	1	1	experiment	1	getValueVector	0.2000000000000000111		0		1	1	1	1	1	no erasure	no erasure		1		0	0	94	14	5815		0			0	2		0			0				0.6999999999999999556															1	0	wind	cloud	Planet1A.png	Ship1A.png	blank.png	blank.png		0
6.6.1	mac	0	2023-12-21	15:57:31	1	1	1	experiment	1	getValueVector	0.2000000000000000111		0		1	1	1	1	1	no erasure	no erasure		1		0	0	95	15	5815		0			0	2		0			0				0.6999999999999999556															1	0	wind	cloud	Planet1A.png	Ship1A.png	blank.png	blank.png		0
6.6.1	mac	0	2023-12-21	15:57:31	1	1	1	experiment	1	getValueVector	0.2000000000000000111		0		1	1	1	1	1	no erasure	no erasure		1		0	0	96	15	5815		0			0	2		0			0				0.6999999999999999556															1	0	wind	cloud	Planet1A.png	Ship1A.png	blank.png	blank.png		0
6.6.1	mac	0	2023-12-21	15:57:31	1	1	1	experiment	1	getValueVector	0.2000000000000000111		0		1	1	1	1	1	no erasure	no erasure		1		0	0	97	16	5815		0			0	2		0			0				0.6999999999999999556															1	0	wind	cloud	Planet1A.png	Ship1A.png	blank.png	blank.png		0
6.6.1	mac	0	2023-12-21	15:57:31	1	1	1	experiment	1	getValueVector	0.2000000000000000111		0		1	1	1	1	1	no erasure	no erasure		1		0	0	98	16	5815		0			0	2		0			0				0.6999999999999999556															1	0	wind	cloud	Planet1A.png	Ship1A.png	blank.png	blank.png		0
6.6.1	mac	0	2023-12-21	15:57:31	1	1	1	experiment	1	getValueVector	0.2000000000000000111		0		1	1	1	1	1	no erasure	no erasure		1		0	0	99	17	5815		0			0	2		0			0				0.6999999999999999556															1	0	wind	cloud	Planet1A.png	Ship1A.png	blank.png	blank.png		0
6.6.1	mac	0	2023-12-21	15:57:31	1	1	1	experiment	1	getValueVector	0.2000000000000000111		0		1	1	1	1	1	no erasure	no erasure		1		0	0	100	17	5815		0			0	2		0			0				0.6999999999999999556															1	0	wind	cloud	Planet1A.png	Ship1A.png	blank.png	blank.png		0
6.6.1	mac	0	2023-12-21	15:57:31	1	1	1	experiment	1	getValueVector	0.2000000000000000111		0		1	1	1	1	1	no erasure	no erasure		1		0	0	101	17	5815		0			0	2		0			0				0.6999999999999999556															1	0	wind	cloud	Planet1A.png	Ship1A.png	blank.png	blank.png		0
6.6.1	mac	0	2023-12-21	15:57:31	1	1	1	experiment	1	getValueVector	0.2000000000000000111		0		1	1	1	1	1	no erasure	no erasure		1		0	0	102	18	5815		0			0	2		0			0				0.6999999999999999556															1	0	wind	cloud	Planet1A.png	Ship1A.png	blank.png	blank.png		0
6.6.1	mac	0	2023-12-21	15:57:31	1	1	1	experiment	1	getValueVector	0.2000000000000000111		0		1	1	1	1	1	no erasure	no erasure		1		0	0	103	18	5815		0			0	2		0			0				0.6999999999999999556															1	0	wind	cloud	Planet1A.png	Ship1A.png	blank.png	blank.png		0
6.6.1	mac	0	2023-12-21	15:57:31	1	1	1	experiment	1	getValueVector	0.2000000000000000111		0		1	1	1	1	1	no erasure	no erasure		1		0	0	104	19	5815		0			0	2		0			0				0.6999999999999999556															1	0	wind	cloud	Planet1A.png	Ship1A.png	blank.png	blank.png		0
6.6.1	mac	0	2023-12-21	15:57:31	1	1	1	experiment	1	getValueVector	0.2000000000000000111		0		1	1	1	1	1	no erasure	no erasure		1		0	0	105	19	5815		0			0	2		0			0				0.6999999999999999556															1	0	wind	cloud	Planet1A.png	Ship1A.png	blank.png	blank.png		0
6.6.1	mac	0	2023-12-21	15:57:31	1	1	1	experiment	1	getValueVector	0.2000000000000000111		0		1	1	1	1	1	no erasure	no erasure		1		0	0	106	20	5815		0			0	2		0			0				0.6999999999999999556															1	0	wind	cloud	Planet1A.png	Ship1A.png	blank.png	blank.png		0
6.6.1	mac	0	2023-12-21	15:57:31	1	1	1	experiment	1	getValueVector	0.2000000000000000111		0		1	1	1	1	1	no erasure	no erasure		1		0	0	107	20	5815		0			0	2		0			0				0.6999999999999999556															1	0	wind	cloud	Planet1A.png	Ship1A.png	blank.png	blank.png		0
6.6.1	mac	0	2023-12-21	15:57:31	1	1	1	experiment	1	getValueVector	0.2000000000000000111		0		1	1	1	1	1	no erasure	no erasure		1		0	0	108	21	5815		0			0	2		0			0				0.6999999999999999556															1	0	wind	cloud	Planet1A.png	Ship1A.png	blank.png	blank.png		0
6.6.1	mac	0	2023-12-21	15:57:31	1	1	1	experiment	1	getValueVector	0.2000000000000000111		0		1	1	1	1	1	no erasure	no erasure		1		0	0	109	21	5815		0			0	2		0			0				0.6999999999999999556															1	0	wind	cloud	Planet1A.png	Ship1A.png	blank.png	blank.png		0
6.6.1	mac	0	2023-12-21	15:57:31	1	1	1	experiment	1	getValueVector	0.2000000000000000111		0		1	1	1	1	1	no erasure	no erasure		1		0	0	110	21	5815		0			0	2		0			0				0.6999999999999999556															1	0	wind	cloud	Planet1A.png	Ship1A.png	blank.png	blank.png		0
6.6.1	mac	0	2023-12-21	15:57:31	1	1	1	experiment	1	getValueVector	0.2000000000000000111		0		1	1	1	1	1	no erasure	no erasure		1		0	0	111	22	5815		0			0	2		0			0				0.6999999999999999556															1	0	wind	cloud	Planet1A.png	Ship1A.png	blank.png	blank.png		0
6.6.1	mac	0	2023-12-21	15:57:31	1	1	1	experiment	1	getValueVector	0.2000000000000000111		0		1	1	1	1	1	no erasure	no erasure		1		0	0	112	22	5815		0			0	2		0			0				0.6999999999999999556															1	0	wind	cloud	Planet1A.png	Ship1A.png	blank.png	blank.png		0
6.6.1	mac	0	2023-12-21	15:57:31	1	1	1	experiment	1	getValueVector	0.2000000000000000111		0		1	1	1	1	1	no erasure	no erasure		1		0	0	113	23	5815		0			0	2		0			0				0.6999999999999999556															1	0	wind	cloud	Planet1A.png	Ship1A.png	blank.png	blank.png		0
6.6.1	mac	0	2023-12-21	15:57:31	1	1	1	experiment	1	getValueVector	0.2000000000000000111		0		1	1	1	1	1	no erasure	no erasure		1		0	0	114	23	5815		0			0	2		0			0				0.6999999999999999556															1	0	wind	cloud	Planet1A.png	Ship1A.png	blank.png	blank.png		0
6.6.1	mac	0	2023-12-21	15:57:31	1	1	1	experiment	1	getValueVector	0.2000000000000000111		0		1	1	1	1	1	no erasure	no erasure		1		0	0	115	24	5815		0			0	2		0			0				0.6999999999999999556															1	0	wind	cloud	Planet1A.png	Ship1A.png	blank.png	blank.png		0
6.6.1	mac	0	2023-12-21	15:57:31	1	1	1	experiment	1	getValueVector	0.2000000000000000111		0		1	1	1	1	1	no erasure	no erasure		1		0	0	116	24	5815		0			0	2		0			0				0.6999999999999999556															1	0	wind	cloud	Planet1A.png	Ship1A.png	blank.png	blank.png		0
6.6.1	mac	0	2023-12-21	15:57:31	1	1	1	experiment	1	getValueVector	0.2000000000000000111		0		1	1	1	1	1	no erasure	no erasure		1		0	0	117	24	5815		0			0	2		0			0				0.6999999999999999556															1	0	wind	cloud	Planet1A.png	Ship1A.png	blank.png	blank.png		0
6.6.1	mac	0	2023-12-21	15:57:31	1	1	1	experiment	1	getValueVector	0.2000000000000000111		0		1	1	1	1	1	no erasure	no erasure		1		0	0	118	25	5815		0			0	2		0			0				0.6999999999999999556															1	0	wind	cloud	Planet1A.png	Ship1A.png	blank.png	blank.png		0
6.6.1	mac	0	2023-12-21	15:57:31	1	1	1	experiment	1	getValueVector	0.2000000000000000111		0		1	1	1	1	1	no erasure	no erasure		1		0	0	119	25	5815		0			0	2		0			0				0.6999999999999999556															1	0	wind	cloud	Planet1A.png	Ship1A.png	blank.png	blank.png		0
6.6.1	mac	0	2023-12-21	15:57:31	1	1	1	experiment	1	getValueVector	0.2000000000000000111		0		1	1	1	1	1	no erasure	no erasure		1		0	0	120	26	5815		0			0	2		0			0				0.6999999999999999556															1	0	wind	cloud	Planet1A.png	Ship1A.png	blank.png	blank.png		0
6.6.1	mac	0	2023-12-21	15:57:31	1	1	1	experiment	1	getValueVector	0.2000000000000000111		0		1	1	1	1	1	no erasure	no erasure		1		0	0	121	26	5815		0			0	2		0			0				0.6999999999999999556															1	0	wind	cloud	Planet1A.png	Ship1A.png	blank.png	blank.png		0
6.6.1	mac	0	2023-12-21	15:57:31	1	1	1	experiment	1	getValueVector	0.2000000000000000111		0		1	1	1	1	1	no erasure	no erasure		1		0	0	122	27	5815		0			0	2		0			0				0.6999999999999999556															1	0	wind	cloud	Planet1A.png	Ship1A.png	blank.png	blank.png		0
6.6.1	mac	0	2023-12-21	15:57:31	1	1	1	experiment	1	getValueVector	0.2000000000000000111		0		1	1	1	1	1	no erasure	no erasure		1		0	0	123	27	5815		0			0	2		0			0				0.6999999999999999556															1	0	wind	cloud	Planet1A.png	Ship1A.png	blank.png	blank.png		0
6.6.1	mac	0	2023-12-21	15:57:31	1	1	1	experiment	1	getValueVector	0.2000000000000000111		0		1	1	1	1	1	no erasure	no erasure		1		0	0	124	27	5815		0			0	2		0			0				0.6999999999999999556															1	0	wind	cloud	Planet1A.png	Ship1A.png	blank.png	blank.png		0
6.6.1	mac	0	2023-12-21	15:57:31	1	1	1	experiment	1	getValueVector	0.2000000000000000111		0		1	1	1	1	1	no erasure	no erasure		1		0	0	125	28	5815		0			0	2		0			0				0.6999999999999999556															1	0	wind	cloud	Planet1A.png	Ship1A.png	blank.png	blank.png		0
6.6.1	mac	0	2023-12-21	15:57:31	1	1	1	experiment	1	getValueVector	0.2000000000000000111		0		1	1	1	1	1	no erasure	no erasure		1		0	0	126	28	5815		0			0	2		0			0				0.6999999999999999556															1	0	wind	cloud	Planet1A.png	Ship1A.png	blank.png	blank.png		0
6.6.1	mac	0	2023-12-21	15:57:31	1	1	1	experiment	1	getValueVector	0.2000000000000000111		0		1	1	1	1	1	no erasure	no erasure		1		0	0	127	29	5815		0			0	2		0			0				0.6999999999999999556															1	0	wind	cloud	Planet1A.png	Ship1A.png	blank.png	blank.png		0
6.6.1	mac	0	2023-12-21	15:57:31	1	1	1	experiment	1	getValueVector	0.2000000000000000111		0		1	1	1	1	1	no erasure	no erasure		1		0	0	128	29	5815		0			0	2		0			0				0.6999999999999999556															1	0	wind	cloud	Planet1A.png	Ship1A.png	blank.png	blank.png		0
6.6.1	mac	0	2023-12-21	15:57:31	1	1	1	experiment	1	getValueVector	0.2000000000000000111		0		1	1	1	1	1	no erasure	no erasure		1		0	0	129	30	5815		0			0	2		0			0				0.6999999999999999556															1	0	wind	cloud	Planet1A.png	Ship1A.png	blank.png	blank.png		0
6.6.1	mac	0	2023-12-21	15:57:31	1	1	1	experiment	1	getValueVector	0.2000000000000000111		0		1	1	1	1	1	no erasure	no erasure		1		0	0	130	30	5815		0			0	2		0			0				0.6999999999999999556															1	0	wind	cloud	Planet1A.png	Ship1A.png	blank.png	blank.png		0
6.6.1	mac	0	2023-12-21	15:57:31	1	1	1	experiment	1	getValueVector	0.2000000000000000111		0		1	1	1	1	1	no erasure	no erasure		1		0	0	131	31	5815		0			0	2		0			0				0.6999999999999999556															1	0	wind	cloud	Planet1A.png	Ship1A.png	blank.png	blank.png		0
6.6.1	mac	0	2023-12-21	15:57:31	1	1	1	experiment	1	getValueVector	0.2000000000000000111		0		1	1	1	1	1	no erasure	no erasure		1		0	0	132	31	5815		0			0	2		0			0				0.6999999999999999556															1	0	wind	cloud	Planet1A.png	Ship1A.png	blank.png	blank.png		0
6.6.1	mac	0	2023-12-21	15:57:31	1	1	1	experiment	1	getValueVector	0.2000000000000000111		0		1	1	1	1	1	no erasure	no erasure		1		0	0	133	32	5815		0			0	2		0			0				0.6999999999999999556															1	0	wind	cloud	Planet1A.png	Ship1A.png	blank.png	blank.png		0
6.6.1	mac	0	2023-12-21	15:57:31	1	1	1	experiment	1	getValueVector	0.2000000000000000111		0		1	1	1	1	1	no erasure	no erasure		1		0	0	134	32	5815		0			0	2		0			0				0.6999999999999999556															1	0	wind	cloud	Planet1A.png	Ship1A.png	blank.png	blank.png		0
6.6.1	mac	0	2023-12-21	15:57:31	1	1	1	experiment	1	getValueVector	0.2000000000000000111		0		1	1	1	1	1	no erasure	no erasure		1		0	0	135	33	5815		0			0	2		0			0				0.6999999999999999556															1	0	wind	cloud	Planet1A.png	Ship1A.png	blank.png	blank.png		0
6.6.1	mac	0	2023-12-21	15:57:31	1	1	1	experiment	1	getValueVector	0.2000000000000000111		0		1	1	1	1	1	no erasure	no erasure		1		0	0	136	33	5815		0			0	2		0			0				0.6999999999999999556															1	0	wind	cloud	Planet1A.png	Ship1A.png	blank.png	blank.png		0
6.6.1	mac	0	2023-12-21	15:57:31	1	1	1	experiment	1	getValueVector	0.2000000000000000111		0		1	1	1	1	1	no erasure	no erasure		1		0	0	137	34	5815		0			0	2		0			0				0.6999999999999999556															1	0	wind	cloud	Planet1A.png	Ship1A.png	blank.png	blank.png		0
6.6.1	mac	0	2023-12-21	15:57:31	1	1	1	experiment	1	getValueVector	0.2000000000000000111		0		1	1	1	1	1	no erasure	no erasure		1		0	0	138	34	5815		0			0	2		0			0				0.6999999999999999556															1	0	wind	cloud	Planet1A.png	Ship1A.png	blank.png	blank.png		0
6.6.1	mac	0	2023-12-21	15:57:31	1	1	1	experiment	1	getValueVector	0.2000000000000000111		0		1	1	1	1	1	no erasure	no erasure		1		0	0	139	35	5815		0			0	2		0			0				0.6999999999999999556															1	0	wind	cloud	Planet1A.png	Ship1A.png	blank.png	blank.png		0
6.6.1	mac	0	2023-12-21	15:57:31	1	1	1	experiment	1	getValueVector	0.2000000000000000111		0		1	1	1	1	1	no erasure	no erasure		1		0	0	140	35	5815		0			0	2		0			0				0.6999999999999999556															1	0	wind	cloud	Planet1A.png	Ship1A.png	blank.png	blank.png		0
6.6.1	mac	0	2023-12-21	15:57:31	1	1	1	experiment	1	getValueVector	0.2000000000000000111		0		1	1	1	1	1	no erasure	no erasure		1		0	0	141	36	5815		0			0	2		0			0				0.6999999999999999556															1	0	wind	cloud	Planet1A.png	Ship1A.png	blank.png	blank.png		0
6.6.1	mac	0	2023-12-21	15:57:31	1	1	1	experiment	1	getValueVector	0.2000000000000000111		0		1	1	1	1	1	no erasure	no erasure		1		0	0	142	36	5815		0			0	2		0			0				0.6999999999999999556															1	0	wind	cloud	Planet1A.png	Ship1A.png	blank.png	blank.png		0
6.6.1	mac	0	2023-12-21	15:57:31	1	1	1	experiment	1	getValueVector	0.2000000000000000111		0		1	1	1	1	1	no erasure	no erasure		1		0	0	143	37	5815		0			0	2		0			0				0.6999999999999999556															1	0	wind	cloud	Planet1A.png	Ship1A.png	blank.png	blank.png		0
6.6.1	mac	0	2023-12-21	15:57:31	1	1	1	experiment	1	getValueVector	0.2000000000000000111		0		1	1	1	1	1	no erasure	no erasure		1		0	0	144	37	5815		0			0	2		0			0				0.6999999999999999556															1	0	wind	cloud	Planet1A.png	Ship1A.png	blank.png	blank.png		0
6.6.1	mac	0	2023-12-21	15:57:31	1	1	1	experiment	1	getValueVector	0.2000000000000000111		0		1	1	1	1	1	no erasure	no erasure		1		0	0	145	38	5815		0			0	2		0			0				0.6999999999999999556															1	0	wind	cloud	Planet1A.png	Ship1A.png	blank.png	blank.png		0
6.6.1	mac	0	2023-12-21	15:57:31	1	1	1	experiment	1	getValueVector	0.2000000000000000111		0		1	1	1	1	1	no erasure	no erasure		1		0	0	146	38	5815		0			0	2		0			0				0.6999999999999999556															1	0	wind	cloud	Planet1A.png	Ship1A.png	blank.png	blank.png		0
6.6.1	mac	0	2023-12-21	15:57:31	1	1	1	experiment	1	getValueVector	0.2000000000000000111		0		1	1	1	1	1	no erasure	no erasure		1		0	0	147	39	5815		0			0	2		0			0				0.6999999999999999556															1	0	wind	cloud	Planet1A.png	Ship1A.png	blank.png	blank.png		0
6.6.1	mac	0	2023-12-21	15:57:31	1	1	1	experiment	1	getValueVector	0.2000000000000000111		0		1	1	1	1	1	no erasure	no erasure		1		0	0	148	39	5815		0			0	2		0			0				0.6999999999999999556															1	0	wind	cloud	Planet1A.png	Ship1A.png	blank.png	blank.png		0
6.6.1	mac	0	2023-12-21	15:57:31	1	1	1	experiment	1	getValueVector	0.2000000000000000111		0		1	1	1	1	1	no erasure	no erasure		1		0	0	149	40	5815		0			0	2		0			0				0.6999999999999999556															1	0	wind	cloud	Planet1A.png	Ship1A.png	blank.png	blank.png		0
6.6.1	mac	0	2023-12-21	15:57:31	1	1	1	experiment	1	getValueVector	0.2000000000000000111		0		1	1	1	1	1	no erasure	no erasure		1		0	0	150	40	5815		0			0	2		0			0				0.6999999999999999556															1	0	wind	cloud	Planet1A.png	Ship1A.png	blank.png	blank.png		0
6.6.1	mac	0	2023-12-21	15:57:31	1	1	1	experiment	1	getValueVector	0.2000000000000000111		0		1	1	1	1	1	no erasure	no erasure		1		0	0	151	40	5815		0			0	2		0			0				0.6999999999999999556															1	0	wind	cloud	Planet1A.png	Ship1A.png	blank.png	blank.png		0
6.6.1	mac	0	2023-12-21	15:57:31	1	1	1	experiment	1	getValueVector	0.2000000000000000111		0		1	1	1	1	1	no erasure	no erasure		1		0	0	152	41	5815		0			0	2		0			0				0.6999999999999999556															1	0	wind	cloud	Planet1A.png	Ship1A.png	blank.png	blank.png		0
6.6.1	mac	0	2023-12-21	15:57:31	1	1	1	experiment	1	getValueVector	0.2000000000000000111		0		1	1	1	1	1	no erasure	no erasure		1		0	0	153	41	5815		0			0	2		0			0				0.6999999999999999556															1	0	wind	cloud	Planet1A.png	Ship1A.png	blank.png	blank.png		0
6.6.1	mac	0	2023-12-21	15:57:31	1	1	1	experiment	1	getValueVector	0.2000000000000000111		0		1	1	1	1	1	no erasure	no erasure		1		0	0	154	42	5815		0			0	2		0			0				0.6999999999999999556															1	0	wind	cloud	Planet1A.png	Ship1A.png	blank.png	blank.png		0
6.6.1	mac	0	2023-12-21	15:57:31	1	1	1	experiment	1	getValueVector	0.2000000000000000111		0		1	1	1	1	1	no erasure	no erasure		1		0	0	155	42	5815		0			0	2		0			0				0.6999999999999999556															1	0	wind	cloud	Planet1A.png	Ship1A.png	blank.png	blank.png		0
6.6.1	mac	0	2023-12-21	15:57:31	1	1	1	experiment	1	getValueVector	0.2000000000000000111		0		1	1	1	1	1	no erasure	no erasure		1		0	0	156	43	5815		0			0	2		0			0				0.6999999999999999556															1	0	wind	cloud	Planet1A.png	Ship1A.png	blank.png	blank.png		0
6.6.1	mac	0	2023-12-21	15:57:31	1	1	1	experiment	1	getValueVector	0.2000000000000000111		0		1	1	1	1	1	no erasure	no erasure		1		0	0	157	43	5815		0			0	2		0			0				0.6999999999999999556															1	0	wind	cloud	Planet1A.png	Ship1A.png	blank.png	blank.png		0
6.6.1	mac	0	2023-12-21	15:57:31	1	1	1	experiment	1	getValueVector	0.2000000000000000111		0		1	1	1	1	1	no erasure	no erasure		1		0	0	158	44	5815		0			0	2		0			0				0.6999999999999999556															1	0	wind	cloud	Planet1A.png	Ship1A.png	blank.png	blank.png		0
6.6.1	mac	0	2023-12-21	15:57:31	1	1	1	experiment	1	getValueVector	0.2000000000000000111		0		1	1	1	1	1	no erasure	no erasure		1		0	0	159	44	5815		0			0	2		0			0				0.6999999999999999556															1	0	wind	cloud	Planet1A.png	Ship1A.png	blank.png	blank.png		0
6.6.1	mac	0	2023-12-21	15:57:31	1	1	1	experiment	1	getValueVector	0.2000000000000000111		0		1	1	1	1	1	no erasure	no erasure		1		0	0	160	44	5815		0			0	2		0			0				0.6999999999999999556															1	0	wind	cloud	Planet1A.png	Ship1A.png	blank.png	blank.png		0
6.6.1	mac	0	2023-12-21	15:57:31	1	1	1	experiment	1	getValueVector	0.2000000000000000111		0		1	1	1	1	1	no erasure	no erasure		1		0	0	161	45	5815		0			0	2		0			0				0.6999999999999999556															1	0	wind	cloud	Planet1A.png	Ship1A.png	blank.png	blank.png		0
6.6.1	mac	0	2023-12-21	15:57:31	1	1	1	experiment	1	getValueVector	0.2000000000000000111		0		1	1	1	1	1	no erasure	no erasure		1		0	0	162	45	5815		0			0	2		0			0				0.6999999999999999556															1	0	wind	cloud	Planet1A.png	Ship1A.png	blank.png	blank.png		0
6.6.1	mac	0	2023-12-21	15:57:31	1	1	1	experiment	1	getValueVector	0.2000000000000000111		0		1	1	1	1	1	no erasure	no erasure		1		0	0	163	45	5815		0			0	2		0			0				0.6999999999999999556															1	0	wind	cloud	Planet1A.png	Ship1A.png	blank.png	blank.png		0
6.6.1	mac	0	2023-12-21	15:57:31	1	1	1	experiment	1	getValueVector	0.2000000000000000111		0		1	1	1	1	1	no erasure	no erasure		1		0	0	164	46	5815		0			0	2		0			0				0.6999999999999999556															1	0	wind	cloud	Planet1A.png	Ship1A.png	blank.png	blank.png		0
6.6.1	mac	0	2023-12-21	15:57:31	1	1	1	experiment	1	getValueVector	0.2000000000000000111		0		1	1	1	1	1	no erasure	no erasure		1		0	0	165	46	5815		0			0	2		0			0				0.6999999999999999556															1	0	wind	cloud	Planet1A.png	Ship1A.png	blank.png	blank.png		0
6.6.1	mac	0	2023-12-21	15:57:31	1	1	1	experiment	1	getValueVector	0.2000000000000000111		0		1	1	1	1	1	no erasure	no erasure		1		0	0	166	46	5815		0			0	2		0			0				0.6999999999999999556															1	0	wind	cloud	Planet1A.png	Ship1A.png	blank.png	blank.png		0
6.6.1	mac	0	2023-12-21	15:57:31	1	1	1	experiment	1	getValueVector	0.2000000000000000111		0		1	1	1	1	1	no erasure	no erasure		1		0	0	167	47	5815		0			0	2		0			0				0.6999999999999999556															1	0	wind	cloud	Planet1A.png	Ship1A.png	blank.png	blank.png		0
6.6.1	mac	0	2023-12-21	15:57:31	1	1	1	experiment	1	getValueVector	0.2000000000000000111		0		1	1	1	1	1	no erasure	no erasure		1		0	0	168	47	5815		0			0	2		0			0				0.6999999999999999556															1	0	wind	cloud	Planet1A.png	Ship1A.png	blank.png	blank.png		0
6.6.1	mac	0	2023-12-21	15:57:31	1	1	1	experiment	1	getValueVector	0.2000000000000000111		0		1	1	1	1	1	no erasure	no erasure		1		0	0	169	47	5815		0			0	2		0			0				0.6999999999999999556															1	0	wind	cloud	Planet1A.png	Ship1A.png	blank.png	blank.png		0
6.6.1	mac	0	2023-12-21	15:57:31	1	1	1	experiment	1	getValueVector	0.2000000000000000111		0		1	1	1	1	1	no erasure	no erasure		1		0	0	170	47	5815		0			0	2		0			0				0.6999999999999999556															1	0	wind	cloud	Planet1A.png	Ship1A.png	blank.png	blank.png		0
6.6.1	mac	0	2023-12-21	15:57:31	1	1	1	experiment	1	getValueVector	0.2000000000000000111		0		1	1	1	1	1	no erasure	no erasure		1		0	0	171	47	5815		0			0	2		0			0				0.6999999999999999556															1	0	wind	cloud	Planet1A.png	Ship1A.png	blank.png	blank.png		0
6.6.1	mac	0	2023-12-21	15:57:31	1	1	1	experiment	1	getValueVector	0.2000000000000000111		0		1	1	1	1	1	no erasure	no erasure		1		0	0	172	48	5815		0			0	2		0			0				0.6999999999999999556															1	0	wind	cloud	Planet1A.png	Ship1A.png	blank.png	blank.png		0
6.6.1	mac	0	2023-12-21	15:57:31	1	1	1	experiment	1	getValueVector	0.2000000000000000111		0		1	1	1	1	1	no erasure	no erasure		1		0	0	173	48	5815		0			0	2		0			0				0.6999999999999999556															1	0	wind	cloud	Planet1A.png	Ship1A.png	blank.png	blank.png		0
6.6.1	mac	0	2023-12-21	15:57:31	1	1	1	experiment	1	getValueVector	0.2000000000000000111		0		1	1	1	1	1	no erasure	no erasure		1		0	0	174	48	5815		0			0	2		0			0				0.6999999999999999556															1	0	wind	cloud	Planet1A.png	Ship1A.png	blank.png	blank.png		0
6.6.1	mac	0	2023-12-21	15:57:31	1	1	1	experiment	1	getValueVector	0.2000000000000000111		0		1	1	1	1	1	no erasure	no erasure		1		0	0	175	48	5815		0			0	2		0			0				0.6999999999999999556															1	0	wind	cloud	Planet1A.png	Ship1A.png	blank.png	blank.png		0
6.6.1	mac	0	2023-12-21	15:57:31	1	1	1	experiment	1	getValueVector	0.2000000000000000111		0		1	1	1	1	1	no erasure	no erasure		1		0	0	176	48	5815		0			0	2		0			0				0.6999999999999999556															1	0	wind	cloud	Planet1A.png	Ship1A.png	blank.png	blank.png		0
6.6.1	mac	0	2023-12-21	15:57:31	1	1	1	experiment	1	getValueVector	0.2000000000000000111		0		1	1	1	1	1	no erasure	no erasure		1		0	0	177	48	5815		0			0	2		0			0				0.6999999999999999556															1	0	wind	cloud	Planet1A.png	Ship1A.png	blank.png	blank.png		0
6.6.1	mac	0	2023-12-21	15:57:31	1	1	1	experiment	1	getValueVector	0.2000000000000000111		0		1	1	1	1	1	no erasure	no erasure		1		0	0	178	48	5815		0			0	2		0			0				0.6999999999999999556															1	0	wind	cloud	Planet1A.png	Ship1A.png	blank.png	blank.png		0
6.6.1	mac	0	2023-12-21	15:57:31	1	1	1	experiment	1	getValueVector	0.2000000000000000111		0		1	1	1	1	1	no erasure	no erasure		1		0	0	179	48	5815		0			0	2		0			0				0.6999999999999999556															1	0	wind	cloud	Planet1A.png	Ship1A.png	blank.png	blank.png		0
6.6.1	mac	0	2023-12-21	15:57:31	1	1	1	experiment	1	getValueVector	0.2000000000000000111		0		1	1	1	1	1	no erasure	no erasure		1		0	0	180	48	5815		0			0	2		0			0				0.6999999999999999556															1	0	wind	cloud	Planet1A.png	Ship1A.png	blank.png	blank.png		0
6.6.1	mac	0	2023-12-21	15:57:31	1	1	1	experiment	1	getValueVector	0.2000000000000000111		0		1	1	1	1	1	no erasure	no erasure		1		0	0	181	48	5815		0			0	2		0			0				0.6999999999999999556															1	0	wind	cloud	Planet1A.png	Ship1A.png	blank.png	blank.png		0
6.6.1	mac	0	2023-12-21	15:57:31	1	1	1	experiment	1	getValueVector	0.2000000000000000111		0		1	1	1	1	1	no erasure	no erasure		1		0	0	182	48	5815		0			0	2		0			0				0.6999999999999999556															1	0	wind	cloud	Planet1A.png	Ship1A.png	blank.png	blank.png		0
6.6.1	mac	0	2023-12-21	15:57:31	1	1	1	experiment	1	getValueVector	0.2000000000000000111		0		1	1	1	1	1	no erasure	no erasure		1		0	0	183	48	5815		0			0	2		0			0				0.6999999999999999556															1	0	wind	cloud	Planet1A.png	Ship1A.png	blank.png	blank.png		0
6.6.1	mac	0	2023-12-21	15:57:31	1	1	1	experiment	1	getValueVector	0.2000000000000000111		0		1	1	1	1	1	no erasure	no erasure		1		0	0	184	47	5815		0			0	2		0			0				0.6999999999999999556															1	0	wind	cloud	Planet1A.png	Ship1A.png	blank.png	blank.png		0
6.6.1	mac	0	2023-12-21	15:57:31	1	1	1	experiment	1	getValueVector	0.2000000000000000111		0		1	1	1	1	1	no erasure	no erasure		1		0	0	185	47	5815		0			0	2		0			0				0.6999999999999999556															1	0	wind	cloud	Planet1A.png	Ship1A.png	blank.png	blank.png		0
6.6.1	mac	0	2023-12-21	15:57:31	1	1	1	experiment	1	getValueVector	0.2000000000000000111		0		1	1	1	1	1	no erasure	no erasure		1		0	0	186	47	5815		0			0	2		0			0				0.6999999999999999556															1	0	wind	cloud	Planet1A.png	Ship1A.png	blank.png	blank.png		0
6.6.1	mac	0	2023-12-21	15:57:31	1	1	1	experiment	1	getValueVector	0.2000000000000000111		0		1	1	1	1	1	no erasure	no erasure		1		0	0	187	47	5815		0			0	2		0			0				0.6999999999999999556															1	0	wind	cloud	Planet1A.png	Ship1A.png	blank.png	blank.png		0
6.6.1	mac	0	2023-12-21	15:57:31	1	1	1	experiment	1	getValueVector	0.2000000000000000111		0		1	1	1	1	1	no erasure	no erasure		1		0	0	188	47	5815		0			0	2		0			0				0.6999999999999999556															1	0	wind	cloud	Planet1A.png	Ship1A.png	blank.png	blank.png		0
6.6.1	mac	0	2023-12-21	15:57:31	1	1	1	experiment	1	getValueVector	0.2000000000000000111		0		1	1	1	1	1	no erasure	no erasure		1		0	0	189	46	5815		0			0	2		0			0				0.6999999999999999556															1	0	wind	cloud	Planet1A.png	Ship1A.png	blank.png	blank.png		0
6.6.1	mac	0	2023-12-21	15:57:31	1	1	1	experiment	1	getValueVector	0.2000000000000000111		0		1	1	1	1	1	no erasure	no erasure		1		0	0	190	46	5815		0			0	2		0			0				0.6999999999999999556															1	0	wind	cloud	Planet1A.png	Ship1A.png	blank.png	blank.png		0
6.6.1	mac	0	2023-12-21	15:57:31	1	1	1	experiment	1	getValueVector	0.2000000000000000111		0		1	1	1	1	1	no erasure	no erasure		1		0	0	191	46	5815		0			0	2		0			0				0.6999999999999999556															1	0	wind	cloud	Planet1A.png	Ship1A.png	blank.png	blank.png		0
6.6.1	mac	0	2023-12-21	15:57:31	1	1	1	experiment	1	getValueVector	0.2000000000000000111		0		1	1	1	1	1	no erasure	no erasure		1		0	0	192	45	5815		0			0	2		0			0				0.6999999999999999556															1	0	wind	cloud	Planet1A.png	Ship1A.png	blank.png	blank.png		0
6.6.1	mac	0	2023-12-21	15:57:31	1	1	1	experiment	1	getValueVector	0.2000000000000000111		0		1	1	1	1	1	no erasure	no erasure		1		0	0	193	45	5815		0			0	2		0			0				0.6999999999999999556															1	0	wind	cloud	Planet1A.png	Ship1A.png	blank.png	blank.png		0
6.6.1	mac	0	2023-12-21	15:57:31	1	1	1	experiment	1	getValueVector	0.2000000000000000111		0		1	1	1	1	1	no erasure	no erasure		1		0	0	194	45	5815		0			0	2		0			0				0.6999999999999999556															1	0	wind	cloud	Planet1A.png	Ship1A.png	blank.png	blank.png		0
6.6.1	mac	0	2023-12-21	15:57:31	1	1	1	experiment	1	getValueVector	0.2000000000000000111		0		1	1	1	1	1	no erasure	no erasure		1		0	0	195	44	5815		0			0	2		0			0				0.6999999999999999556															1	0	wind	cloud	Planet1A.png	Ship1A.png	blank.png	blank.png		0
6.6.1	mac	0	2023-12-21	15:57:31	1	1	1	experiment	1	getValueVector	0.2000000000000000111		0		1	1	1	1	1	no erasure	no erasure		1		0	0	196	44	5815		0			0	2		0			0				0.6999999999999999556															1	0	wind	cloud	Planet1A.png	Ship1A.png	blank.png	blank.png		0
6.6.1	mac	0	2023-12-21	15:57:31	1	1	1	experiment	1	getValueVector	0.2000000000000000111		0		1	1	1	1	1	no erasure	no erasure		1		0	0	197	44	5815		0			0	2		0			0				0.6999999999999999556															1	0	wind	cloud	Planet1A.png	Ship1A.png	blank.png	blank.png		0
6.6.1	mac	0	2023-12-21	15:57:31	1	1	1	experiment	1	getValueVector	0.2000000000000000111		0		1	1	1	1	1	no erasure	no erasure		1		0	0	198	43	5815		0			0	2		0			0				0.6999999999999999556															1	0	wind	cloud	Planet1A.png	Ship1A.png	blank.png	blank.png		0
6.6.1	mac	0	2023-12-21	15:57:31	1	1	1	experiment	1	getValueVector	0.2000000000000000111		0		1	1	1	1	1	no erasure	no erasure		1		0	0	199	43	5815		0			0	2		0			0				0.6999999999999999556															1	0	wind	cloud	Planet1A.png	Ship1A.png	blank.png	blank.png		0
6.6.1	mac	0	2023-12-21	15:57:31	1	1	1	experiment	1	getValueVector	0.2000000000000000111		0		1	1	1	1	1	no erasure	no erasure		1		0	0	200	43	5815		0			0	2		0			0				0.6999999999999999556															1	0	wind	cloud	Planet1A.png	Ship1A.png	blank.png	blank.png		0
6.6.1	mac	0	2023-12-21	15:57:31	1	1	1	experiment	1	getValueVector	0.2000000000000000111		0		1	1	1	1	1	no erasure	no erasure		1		0	0	201	42	5815		0			0	2		0			0				0.6999999999999999556															1	0	wind	cloud	Planet1A.png	Ship1A.png	blank.png	blank.png		0
6.6.1	mac	0	2023-12-21	15:57:31	1	1	1	experiment	1	getValueVector	0.2000000000000000111		0		1	1	1	1	1	no erasure	no erasure		1		0	0	202	42	5815		0			0	2		0			0				0.6999999999999999556															1	0	wind	cloud	Planet1A.png	Ship1A.png	blank.png	blank.png		0
6.6.1	mac	0	2023-12-21	15:57:31	1	1	1	experiment	1	getValueVector	0.2000000000000000111		0		1	1	1	1	1	no erasure	no erasure		1		0	0	203	41	5815		0			0	2		0			0				0.6999999999999999556															1	0	wind	cloud	Planet1A.png	Ship1A.png	blank.png	blank.png		0
6.6.1	mac	0	2023-12-21	15:57:31	1	1	1	experiment	1	getValueVector	0.2000000000000000111		0		1	1	1	1	1	no erasure	no erasure		1		0	0	204	41	5815		0			0	2		0			0				0.6999999999999999556															1	0	wind	cloud	Planet1A.png	Ship1A.png	blank.png	blank.png		0
6.6.1	mac	0	2023-12-21	15:57:31	1	1	1	experiment	1	getValueVector	0.2000000000000000111		0		1	1	1	1	1	no erasure	no erasure		1		0	0	205	41	5815		0			0	2		0			0				0.6999999999999999556															1	0	wind	cloud	Planet1A.png	Ship1A.png	blank.png	blank.png		0
6.6.1	mac	0	2023-12-21	15:57:31	1	1	1	experiment	1	getValueVector	0.2000000000000000111		0		1	1	1	1	1	no erasure	no erasure		1		0	0	206	40	5815		0			0	2		0			0				0.6999999999999999556															1	0	wind	cloud	Planet1A.png	Ship1A.png	blank.png	blank.png		0
6.6.1	mac	0	2023-12-21	15:57:31	1	1	1	experiment	1	getValueVector	0.2000000000000000111		0		1	1	1	1	1	no erasure	no erasure		1		0	0	207	40	5815		0			0	2		0			0				0.6999999999999999556															1	0	wind	cloud	Planet1A.png	Ship1A.png	blank.png	blank.png		0
6.6.1	mac	0	2023-12-21	15:57:31	1	1	1	experiment	1	getValueVector	0.2000000000000000111		0		1	1	1	1	1	no erasure	no erasure		1		0	0	208	40	5815		0			0	2		0			0				0.6999999999999999556															1	0	wind	cloud	Planet1A.png	Ship1A.png	blank.png	blank.png		0
6.6.1	mac	0	2023-12-21	15:57:31	1	1	1	experiment	1	getValueVector	0.2000000000000000111		0		1	1	1	1	1	no erasure	no erasure		1		0	0	209	39	5815		0			0	2		0			0				0.6999999999999999556															1	0	wind	cloud	Planet1A.png	Ship1A.png	blank.png	blank.png		0
6.6.1	mac	0	2023-12-21	15:57:31	1	1	1	experiment	1	getValueVector	0.2000000000000000111		0		1	1	1	1	1	no erasure	no erasure		1		0	0	210	39	5815		0			0	2		0			0				0.6999999999999999556															1	0	wind	cloud	Planet1A.png	Ship1A.png	blank.png	blank.png		0
6.6.1	mac	0	2023-12-21	15:57:31	1	1	1	experiment	1	getValueVector	0.2000000000000000111		0		1	1	1	1	1	no erasure	no erasure		1		0	0	211	39	5815		0			0	2		0			0				0.6999999999999999556															1	0	wind	cloud	Planet1A.png	Ship1A.png	blank.png	blank.png		0
6.6.1	mac	0	2023-12-21	15:57:31	1	1	1	experiment	1	getValueVector	0.2000000000000000111		0		1	1	1	1	1	no erasure	no erasure		1		0	0	212	39	5815		0			0	2		0			0				0.6999999999999999556															1	0	wind	cloud	Planet1A.png	Ship1A.png	blank.png	blank.png		0
6.6.1	mac	0	2023-12-21	15:57:31	1	1	1	experiment	1	getValueVector	0.2000000000000000111		0		1	1	1	1	1	no erasure	no erasure		1		0	0	213	38	5815		0			0	2		0			0				0.6999999999999999556															1	0	wind	cloud	Planet1A.png	Ship1A.png	blank.png	blank.png		0
6.6.1	mac	0	2023-12-21	15:57:31	1	1	1	experiment	1	getValueVector	0.2000000000000000111		0		1	1	1	1	1	no erasure	no erasure		1		0	0	214	38	5815		0			0	2		0			0				0.6999999999999999556															1	0	wind	cloud	Planet1A.png	Ship1A.png	blank.png	blank.png		0
6.6.1	mac	0	2023-12-21	15:57:31	1	1	1	experiment	1	getValueVector	0.2000000000000000111		0		1	1	1	1	1	no erasure	no erasure		1		0	0	215	38	5815		0			0	2		0			0				0.6999999999999999556															1	0	wind	cloud	Planet1A.png	Ship1A.png	blank.png	blank.png		0
6.6.1	mac	0	2023-12-21	15:57:31	1	1	1	experiment	1	getValueVector	0.2000000000000000111		0		1	1	1	1	1	no erasure	no erasure		1		0	0	216	38	5815		0			0	2		0			0				0.6999999999999999556															1	0	wind	cloud	Planet1A.png	Ship1A.png	blank.png	blank.png		0
6.6.1	mac	0	2023-12-21	15:57:31	1	1	1	experiment	1	getValueVector	0.2000000000000000111		0		1	1	1	1	1	no erasure	no erasure		1		0	0	217	38	5815		0			0	2		0			0				0.6999999999999999556															1	0	wind	cloud	Planet1A.png	Ship1A.png	blank.png	blank.png		0
6.6.1	mac	0	2023-12-21	15:57:31	1	1	1	experiment	1	getValueVector	0.2000000000000000111		0		1	1	1	1	1	no erasure	no erasure		1		0	0	218	38	5815		0			0	2		0			0				0.6999999999999999556															1	0	wind	cloud	Planet1A.png	Ship1A.png	blank.png	blank.png		0
6.6.1	mac	0	2023-12-21	15:57:31	1	1	1	experiment	1	getValueVector	0.2000000000000000111		0		1	1	1	1	1	no erasure	no erasure		1		0	0	219	38	5815		0			0	2		0			0				0.6999999999999999556															1	0	wind	cloud	Planet1A.png	Ship1A.png	blank.png	blank.png		0
6.6.1	mac	0	2023-12-21	15:57:31	1	1	1	experiment	1	getValueVector	0.2000000000000000111		0		1	1	1	1	1	no erasure	no erasure		1		0	0	220	38	5815		0			0	2		0			0				0.6999999999999999556															1	0	wind	cloud	Planet1A.png	Ship1A.png	blank.png	blank.png		0
6.6.1	mac	0	2023-12-21	15:57:31	1	1	1	experiment	1	getValueVector	0.2000000000000000111		0		1	1	1	1	1	no erasure	no erasure		1		0	0	221	38	5815		0			0	2		0			0				0.6999999999999999556															1	0	wind	cloud	Planet1A.png	Ship1A.png	blank.png	blank.png		0
6.6.1	mac	0	2023-12-21	15:57:31	1	1	1	experiment	1	getValueVector	0.2000000000000000111		0		1	1	1	1	1	no erasure	no erasure		1		0	0	222	38	5815		0			0	2		0			0				0.6999999999999999556															1	0	wind	cloud	Planet1A.png	Ship1A.png	blank.png	blank.png		0
6.6.1	mac	0	2023-12-21	15:57:31	1	1	1	experiment	1	getValueVector	0.2000000000000000111		0		1	1	1	1	1	no erasure	no erasure		1		0	0	223	39	5815		0			0	2		0			0				0.6999999999999999556															1	0	wind	cloud	Planet1A.png	Ship1A.png	blank.png	blank.png		0
6.6.1	mac	0	2023-12-21	15:57:31	1	1	1	experiment	1	getValueVector	0.2000000000000000111		0		1	1	1	1	1	no erasure	no erasure		1		0	0	224	39	5815		0			0	2		0			0				0.6999999999999999556															1	0	wind	cloud	Planet1A.png	Ship1A.png	blank.png	blank.png		0
6.6.1	mac	0	2023-12-21	15:57:31	1	1	1	experiment	1	getValueVector	0.2000000000000000111		0		1	1	1	1	1	no erasure	no erasure		1		0	0	225	39	5815		0			0	2		0			0				0.6999999999999999556															1	0	wind	cloud	Planet1A.png	Ship1A.png	blank.png	blank.png		0
6.6.1	mac	0	2023-12-21	15:57:31	1	1	1	experiment	1	getValueVector	0.2000000000000000111		0		1	1	1	1	1	no erasure	no erasure		1		0	0	226	40	5815		0			0	2		0			0				0.6999999999999999556															1	0	wind	cloud	Planet1A.png	Ship1A.png	blank.png	blank.png		0
6.6.1	mac	0	2023-12-21	15:57:31	1	1	1	experiment	1	getValueVector	0.2000000000000000111		0		1	1	1	1	1	no erasure	no erasure		1		0	0	227	40	5815		0			0	2		0			0				0.6999999999999999556															1	0	wind	cloud	Planet1A.png	Ship1A.png	blank.png	blank.png		0
6.6.1	mac	0	2023-12-21	15:57:31	1	1	1	experiment	1	getValueVector	0.2000000000000000111		0		1	1	1	1	1	no erasure	no erasure		1		0	0	228	41	5815		0			0	2		0			0				0.6999999999999999556															1	0	wind	cloud	Planet1A.png	Ship1A.png	blank.png	blank.png		0
6.6.1	mac	0	2023-12-21	15:57:31	1	1	1	experiment	1	getValueVector	0.2000000000000000111		0		1	1	1	1	1	no erasure	no erasure		1		0	0	229	41	5815		0			0	2		0			0				0.6999999999999999556															1	0	wind	cloud	Planet1A.png	Ship1A.png	blank.png	blank.png		0
6.6.1	mac	0	2023-12-21	15:57:31	1	1	1	experiment	1	getValueVector	0.2000000000000000111		0		1	1	1	1	1	no erasure	no erasure		1		0	0	230	42	5815		0			0	2		0			0				0.6999999999999999556															1	0	wind	cloud	Planet1A.png	Ship1A.png	blank.png	blank.png		0
6.6.1	mac	0	2023-12-21	15:57:31	1	1	1	experiment	1	getValueVector	0.2000000000000000111		0		1	1	1	1	1	no erasure	no erasure		1		0	0	231	43	5815		0			0	2		0			0				0.6999999999999999556															1	0	wind	cloud	Planet1A.png	Ship1A.png	blank.png	blank.png		0
6.6.1	mac	0	2023-12-21	15:57:31	1	1	1	experiment	1	getValueVector	0.2000000000000000111		0		1	1	1	1	1	no erasure	no erasure		1		0	0	232	43	5815		0			0	2		0			0				0.6999999999999999556															1	0	wind	cloud	Planet1A.png	Ship1A.png	blank.png	blank.png		0
6.6.1	mac	0	2023-12-21	15:57:31	1	1	1	experiment	1	getValueVector	0.2000000000000000111		0		1	1	1	1	1	no erasure	no erasure		1		0	0	233	44	5815		0			0	2		0			0				0.6999999999999999556															1	0	wind	cloud	Planet1A.png	Ship1A.png	blank.png	blank.png		0
6.6.1	mac	0	2023-12-21	15:57:31	1	1	1	experiment	1	getValueVector	0.2000000000000000111		0		1	1	1	1	1	no erasure	no erasure		1		0	0	234	45	5815		0			0	2		0			0				0.6999999999999999556															1	0	wind	cloud	Planet1A.png	Ship1A.png	blank.png	blank.png		0
6.6.1	mac	0	2023-12-21	15:57:31	1	1	1	experiment	1	getValueVector	0.2000000000000000111		0		1	1	1	1	1	no erasure	no erasure		1		0	0	235	46	5815		0			0	2		0			0				0.6999999999999999556															1	0	wind	cloud	Planet1A.png	Ship1A.png	blank.png	blank.png		0
6.6.1	mac	0	2023-12-21	15:57:31	1	1	1	experiment	1	getValueVector	0.2000000000000000111		0		1	1	1	1	1	no erasure	no erasure		1		0	0	236	48	5815		0			0	2		0			0				0.6999999999999999556															1	0	wind	cloud	Planet1A.png	Ship1A.png	blank.png	blank.png		0
6.6.1	mac	0	2023-12-21	15:57:31	1	1	1	experiment	1	getValueVector	0.2000000000000000111		0		1	1	1	1	1	no erasure	no erasure		1		0	0	237	49	5815		0			0	2		0			0				0.6999999999999999556															1	0	wind	cloud	Planet1A.png	Ship1A.png	blank.png	blank.png		0
6.6.1	mac	0	2023-12-21	15:57:31	1	1	1	experiment	1	getValueVector	0.2000000000000000111		0		1	1	1	1	1	no erasure	no erasure		1		0	0	238	50	5815		0			0	2		0			0				0.6999999999999999556															1	0	wind	cloud	Planet1A.png	Ship1A.png	blank.png	blank.png		0
6.6.1	mac	0	2023-12-21	15:57:31	1	1	1	experiment	1	getValueVector	0.2000000000000000111		0		1	1	1	1	1	no erasure	no erasure		1		0	0	239	51	5815		0			0	2		0			0				0.6999999999999999556															1	0	wind	cloud	Planet1A.png	Ship1A.png	blank.png	blank.png		0
6.6.1	mac	0	2023-12-21	15:57:31	1	1	1	experiment	1	getValueVector	0.2000000000000000111		0		1	1	1	1	1	no erasure	no erasure		1		0	0	240	53	5815		0			0	2		0			0				0.6999999999999999556															1	0	wind	cloud	Planet1A.png	Ship1A.png	blank.png	blank.png		0
6.6.1	mac	0	2023-12-21	15:57:31	1	1	1	experiment	1	getValueVector	0.2000000000000000111		0		1	1	1	1	1	no erasure	no erasure		1		0	0	241	54	5815		0			0	2		0			0				0.6999999999999999556															1	0	wind	cloud	Planet1A.png	Ship1A.png	blank.png	blank.png		0
6.6.1	mac	0	2023-12-21	15:57:31	1	1	1	experiment	1	getValueVector	0.2000000000000000111		0		1	1	1	1	1	no erasure	no erasure		1		0	0	242	56	5815		0			0	2		0			0				0.6999999999999999556															1	0	wind	cloud	Planet1A.png	Ship1A.png	blank.png	blank.png		0
6.6.1	mac	0	2023-12-21	15:57:31	1	1	1	experiment	1	getValueVector	0.2000000000000000111		0		1	1	1	1	1	no erasure	no erasure		1		0	0	243	58	5815		0			0	2		0			0				0.6999999999999999556															1	0	wind	cloud	Planet1A.png	Ship1A.png	blank.png	blank.png		0
6.6.1	mac	0	2023-12-21	15:57:31	1	1	1	experiment	1	getValueVector	0.2000000000000000111		0		1	1	1	1	1	no erasure	no erasure		1		0	0	244	60	5815		0			0	2		0			0				0.6999999999999999556															1	0	wind	cloud	Planet1A.png	Ship1A.png	blank.png	blank.png		0
6.6.1	mac	0	2023-12-21	15:57:31	1	1	1	experiment	1	getValueVector	0.2000000000000000111		0		1	1	1	1	1	no erasure	no erasure		1		0	0	245	62	5815		0			0	2		0			0				0.6999999999999999556															1	0	wind	cloud	Planet1A.png	Ship1A.png	blank.png	blank.png		0
6.6.1	mac	0	2023-12-21	15:57:31	1	1	1	experiment	1	getValueVector	0.2000000000000000111		0		1	1	1	1	1	no erasure	no erasure		1		0	0	246	64	5815		0			0	2		0			0				0.6999999999999999556															1	0	wind	cloud	Planet1A.png	Ship1A.png	blank.png	blank.png		0
6.6.1	mac	0	2023-12-21	15:57:31	1	1	1	experiment	1	getValueVector	0.2000000000000000111		0		1	1	1	1	1	no erasure	no erasure		1		0	0	247	66	5815		0			0	2		0			0				0.6999999999999999556															1	0	wind	cloud	Planet1A.png	Ship1A.png	blank.png	blank.png		0
6.6.1	mac	0	2023-12-21	15:57:31	1	1	1	experiment	1	getValueVector	0.2000000000000000111		0		1	1	1	1	1	no erasure	no erasure		1		0	0	248	68	5815		0			0	2		0			0				0.6999999999999999556															1	0	wind	cloud	Planet1A.png	Ship1A.png	blank.png	blank.png		0
6.6.1	mac	0	2023-12-21	15:57:31	1	1	1	experiment	1	getValueVector	0.2000000000000000111		0		1	1	1	1	1	no erasure	no erasure		1		0	0	249	70	5815		0			0	2		0			0				0.6999999999999999556															1	0	wind	cloud	Planet1A.png	Ship1A.png	blank.png	blank.png		0
6.6.1	mac	0	2023-12-21	15:57:31	1	1	1	experiment	1	getValueVector	0.2000000000000000111		0		1	1	1	1	1	no erasure	no erasure		1		0	0	250	73	5815		0			0	2		0			0				0.6999999999999999556															1	0	wind	cloud	Planet1A.png	Ship1A.png	blank.png	blank.png		0
6.6.1	mac	0	2023-12-21	15:57:31	1	1	1	experiment	1	getValueVector	0.2000000000000000111		0		1	1	1	1	1	no erasure	no erasure		1		0	0	251	75	5815		0			0	2		0			0				0.6999999999999999556															1	0	wind	cloud	Planet1A.png	Ship1A.png	blank.png	blank.png		0
6.6.1	mac	0	2023-12-21	15:57:31	1	1	1	experiment	1	getValueVector	0.2000000000000000111		0		1	1	1	1	1	no erasure	no erasure		1		0	0	252	77	5815		0			0	2		0			0				0.6999999999999999556															1	0	wind	cloud	Planet1A.png	Ship1A.png	blank.png	blank.png		0
6.6.1	mac	0	2023-12-21	15:57:31	1	1	1	experiment	1	getValueVector	0.2000000000000000111		0		1	1	1	1	1	no erasure	no erasure		1		0	0	253	80	5815		0			0	2		0			0				0.6999999999999999556															1	0	wind	cloud	Planet1A.png	Ship1A.png	blank.png	blank.png		0
6.6.1	mac	0	2023-12-21	15:57:31	1	1	1	experiment	1	getValueVector	0.2000000000000000111		0		1	1	1	1	1	no erasure	no erasure		1		0	0	254	83	5815		0			0	2		0			0				0.6999999999999999556															1	0	wind	cloud	Planet1A.png	Ship1A.png	blank.png	blank.png		0
6.6.1	mac	0	2023-12-21	15:57:31	1	1	1	experiment	1	getValueVector	0.2000000000000000111		0		1	1	1	1	1	no erasure	no erasure		1		0	0	255	85	5815		0			0	2		0			0				0.6999999999999999556															1	0	wind	cloud	Planet1A.png	Ship1A.png	blank.png	blank.png		0
6.6.1	mac	0	2023-12-21	15:57:31	1	1	1	experiment	1	getValueVector	0.2000000000000000111		0		1	1	1	1	1	no erasure	no erasure		1		0	0	256	88	5815		0			0	2		0			0				0.6999999999999999556															1	0	wind	cloud	Planet1A.png	Ship1A.png	blank.png	blank.png		0
6.6.1	mac	0	2023-12-21	15:57:31	1	1	1	experiment	1	getValueVector	0.2000000000000000111		0		1	1	1	1	1	no erasure	no erasure		1		0	0	257	91	5815		0			0	2		0			0				0.6999999999999999556															1	0	wind	cloud	Planet1A.png	Ship1A.png	blank.png	blank.png		0
6.6.1	mac	0	2023-12-21	15:57:31	1	1	1	experiment	1	getValueVector	0.2000000000000000111		0		1	1	1	1	1	no erasure	no erasure		1		0	0	258	94	5815		0			0	2		0			0				0.6999999999999999556															1	0	wind	cloud	Planet1A.png	Ship1A.png	blank.png	blank.png		0
6.6.1	mac	0	2023-12-21	15:57:31	1	1	1	experiment	1	getValueVector	0.2000000000000000111		0		1	1	1	1	1	no erasure	no erasure		1		0	0	259	97	5815		0			0	2		0			0				0.6999999999999999556															1	0	wind	cloud	Planet1A.png	Ship1A.png	blank.png	blank.png		0
6.6.1	mac	0	2023-12-21	15:57:31	1	1	1	experiment	1	getValueVector	0.2000000000000000111		0		1	1	1	1	1	no erasure	no erasure		1		0	0	260	100	5815		0			0	2		0			0				0.6999999999999999556															1	0	wind	cloud	Planet1A.png	Ship1A.png	blank.png	blank.png		0
6.6.1	mac	0	2023-12-21	15:57:31	1	1	1	experiment	1	getValueVector	0.2000000000000000111		0		1	1	1	1	1	no erasure	no erasure		1		0	0	261	103	5815		0			0	2		0			0				0.6999999999999999556															1	0	wind	cloud	Planet1A.png	Ship1A.png	blank.png	blank.png		0
6.6.1	mac	0	2023-12-21	15:57:31	1	1	1	experiment	1	getValueVector	0.2000000000000000111		0		1	1	1	1	1	no erasure	no erasure		1		0	0	262	106	5815		0			0	2		0			0				0.6999999999999999556															1	0	wind	cloud	Planet1A.png	Ship1A.png	blank.png	blank.png		0
6.6.1	mac	0	2023-12-21	15:57:31	1	1	1	experiment	1	getValueVector	0.2000000000000000111		0		1	1	1	1	1	no erasure	no erasure		1		0	0	263	110	5815		0			0	2		0			0				0.6999999999999999556															1	0	wind	cloud	Planet1A.png	Ship1A.png	blank.png	blank.png		0
6.6.1	mac	0	2023-12-21	15:57:31	1	1	1	experiment	1	getValueVector	0.2000000000000000111		0		1	1	1	1	1	no erasure	no erasure		1		0	0	264	113	5815		0			0	2		0			0				0.6999999999999999556															1	0	wind	cloud	Planet1A.png	Ship1A.png	blank.png	blank.png		0
6.6.1	mac	0	2023-12-21	15:57:31	1	1	1	experiment	1	getValueVector	0.2000000000000000111		0		1	1	1	1	1	no erasure	no erasure		1		0	0	265	116	5815		0			0	2		0			0				0.6999999999999999556															1	0	wind	cloud	Planet1A.png	Ship1A.png	blank.png	blank.png		0
6.6.1	mac	0	2023-12-21	15:57:31	1	1	1	experiment	1	getValueVector	0.2000000000000000111		0		1	1	1	1	1	no erasure	no erasure		1		0	0	266	120	5815		0			0	2		0			0				0.6999999999999999556															1	0	wind	cloud	Planet1A.png	Ship1A.png	blank.png	blank.png		0
6.6.1	mac	0	2023-12-21	15:57:31	1	1	1	experiment	1	getValueVector	0.2000000000000000111		0		1	1	1	1	1	no erasure	no erasure		1		0	0	267	123	5815		0			0	2		0			0				0.6999999999999999556															1	0	wind	cloud	Planet1A.png	Ship1A.png	blank.png	blank.png		0
6.6.1	mac	0	2023-12-21	15:57:31	1	1	1	experiment	1	getValueVector	0.2000000000000000111		0		1	1	1	1	1	no erasure	no erasure		1		0	0	268	126	5815		0			0	2		0			0				0.6999999999999999556															1	0	wind	cloud	Planet1A.png	Ship1A.png	blank.png	blank.png		0
6.6.1	mac	0	2023-12-21	15:57:31	1	1	1	experiment	1	getValueVector	0.2000000000000000111		0		1	1	1	1	1	no erasure	no erasure		1		0	0	269	130	5815		0			0	2		0			0				0.6999999999999999556															1	0	wind	cloud	Planet1A.png	Ship1A.png	blank.png	blank.png		0
6.6.1	mac	0	2023-12-21	15:57:31	1	1	1	experiment	1	getValueVector	0.2000000000000000111		0		1	1	1	1	1	no erasure	no erasure		1		0	0	270	133	5815		0			0	2		0			0				0.6999999999999999556															1	0	wind	cloud	Planet1A.png	Ship1A.png	blank.png	blank.png		0
6.6.1	mac	0	2023-12-21	15:57:31	1	1	1	experiment	1	getValueVector	0.2000000000000000111		0		1	1	1	1	1	no erasure	no erasure		1		0	0	271	136	5815		0			0	2		0			0				0.6999999999999999556															1	0	wind	cloud	Planet1A.png	Ship1A.png	blank.png	blank.png		0
6.6.1	mac	0	2023-12-21	15:57:31	1	1	1	experiment	1	getValueVector	0.2000000000000000111		0		1	1	1	1	1	no erasure	no erasure		1		0	0	272	140	5815		0			0	2		0			0				0.6999999999999999556															1	0	wind	cloud	Planet1A.png	Ship1A.png	blank.png	blank.png		0
6.6.1	mac	0	2023-12-21	15:57:31	1	1	1	experiment	1	getValueVector	0.2000000000000000111		0		1	1	1	1	1	no erasure	no erasure		1		0	0	273	143	5815		0			0	2		0			0				0.6999999999999999556															1	0	wind	cloud	Planet1A.png	Ship1A.png	blank.png	blank.png		0
6.6.1	mac	0	2023-12-21	15:57:31	1	1	1	experiment	1	getValueVector	0.2000000000000000111		0		1	1	1	1	1	no erasure	no erasure		1		0	0	274	146	5815		0			0	2		0			0				0.6999999999999999556															1	0	wind	cloud	Planet1A.png	Ship1A.png	blank.png	blank.png		0
6.6.1	mac	0	2023-12-21	15:57:31	1	1	1	experiment	1	getValueVector	0.2000000000000000111		0		1	1	1	1	1	no erasure	no erasure		1		0	0	275	149	5815		0			0	2		0			0				0.6999999999999999556															1	0	wind	cloud	Planet1A.png	Ship1A.png	blank.png	blank.png		0
6.6.1	mac	0	2023-12-21	15:57:31	1	1	1	experiment	1	getValueVector	0.2000000000000000111		0		1	1	1	1	1	no erasure	no erasure		1		0	0	276	153	5815		0			0	2		0			0				0.6999999999999999556															1	0	wind	cloud	Planet1A.png	Ship1A.png	blank.png	blank.png		0
6.6.1	mac	0	2023-12-21	15:57:31	1	1	1	experiment	1	getValueVector	0.2000000000000000111		0		1	1	1	1	1	no erasure	no erasure		1		0	0	277	156	5815		0			0	2		0			0				0.6999999999999999556															1	0	wind	cloud	Planet1A.png	Ship1A.png	blank.png	blank.png		0
6.6.1	mac	0	2023-12-21	15:57:31	1	1	1	experiment	1	getValueVector	0.2000000000000000111		0		1	1	1	1	1	no erasure	no erasure		1		0	0	278	159	5815		0			0	2		0			0				0.6999999999999999556															1	0	wind	cloud	Planet1A.png	Ship1A.png	blank.png	blank.png		0
6.6.1	mac	0	2023-12-21	15:57:31	1	1	1	experiment	1	getValueVector	0.2000000000000000111		0		1	1	1	1	1	no erasure	no erasure		1		0	0	279	162	5815		0			0	2		0			0				0.6999999999999999556															1	0	wind	cloud	Planet1A.png	Ship1A.png	blank.png	blank.png		0
6.6.1	mac	0	2023-12-21	15:57:31	1	1	1	experiment	1	getValueVector	0.2000000000000000111		0		1	1	1	1	1	no erasure	no erasure		1		0	0	280	165	5815		0			0	2		0			0				0.6999999999999999556															1	0	wind	cloud	Planet1A.png	Ship1A.png	blank.png	blank.png		0
6.6.1	mac	0	2023-12-21	15:57:31	1	1	1	experiment	1	getValueVector	0.2000000000000000111		0		1	1	1	1	1	no erasure	no erasure		1		0	0	281	168	5815		0			0	2		0			0				0.6999999999999999556															1	0	wind	cloud	Planet1A.png	Ship1A.png	blank.png	blank.png		0
6.6.1	mac	0	2023-12-21	15:57:31	1	1	1	experiment	1	getValueVector	0.2000000000000000111		0		1	1	1	1	1	no erasure	no erasure		1		0	0	282	171	5815		0			0	2		0			0				0.6999999999999999556															1	0	wind	cloud	Planet1A.png	Ship1A.png	blank.png	blank.png		0
6.6.1	mac	0	2023-12-21	15:57:31	1	1	1	experiment	1	getValueVector	0.2000000000000000111		0		1	1	1	1	1	no erasure	no erasure		1		0	0	283	174	5815		0			0	2		0			0				0.6999999999999999556															1	0	wind	cloud	Planet1A.png	Ship1A.png	blank.png	blank.png		0
6.6.1	mac	0	2023-12-21	15:57:31	1	1	1	experiment	1	getValueVector	0.2000000000000000111		0		1	1	1	1	1	no erasure	no erasure		1		0	0	284	176	5815		0			0	2		0			0				0.6999999999999999556															1	0	wind	cloud	Planet1A.png	Ship1A.png	blank.png	blank.png		0
6.6.1	mac	0	2023-12-21	15:57:31	1	1	1	experiment	1	getValueVector	0.2000000000000000111		0		1	1	1	1	1	no erasure	no erasure		1		0	0	285	179	5815		0			0	2		0			0				0.6999999999999999556															1	0	wind	cloud	Planet1A.png	Ship1A.png	blank.png	blank.png		0
6.6.1	mac	0	2023-12-21	15:57:31	1	1	1	experiment	1	getValueVector	0.2000000000000000111		0		1	1	1	1	1	no erasure	no erasure		1		0	0	286	181	5815		0			0	2		0			0				0.6999999999999999556															1	0	wind	cloud	Planet1A.png	Ship1A.png	blank.png	blank.png		0
6.6.1	mac	0	2023-12-21	15:57:31	1	1	1	experiment	1	getValueVector	0.2000000000000000111		0		1	1	1	1	1	no erasure	no erasure		1		0	0	287	183	5815		0			0	2		0			0				0.6999999999999999556															1	0	wind	cloud	Planet1A.png	Ship1A.png	blank.png	blank.png		0
6.6.1	mac	0	2023-12-21	15:57:31	1	1	1	experiment	1	getValueVector	0.2000000000000000111		0		1	1	1	1	1	no erasure	no erasure		1		0	0	288	186	5815		0			0	2		0			0				0.6999999999999999556															1	0	wind	cloud	Planet1A.png	Ship1A.png	blank.png	blank.png		0
6.6.1	mac	0	2023-12-21	15:57:31	1	1	1	experiment	1	getValueVector	0.2000000000000000111		0		1	1	1	1	1	no erasure	no erasure		1		0	0	289	188	5815		0			0	2		0			0				0.6999999999999999556															1	0	wind	cloud	Planet1A.png	Ship1A.png	blank.png	blank.png		0
6.6.1	mac	0	2023-12-21	15:57:31	1	1	1	experiment	1	getValueVector	0.2000000000000000111		0		1	1	1	1	1	no erasure	no erasure		1		0	0	290	190	5815		0			0	2		0			0				0.6999999999999999556															1	0	wind	cloud	Planet1A.png	Ship1A.png	blank.png	blank.png		0
6.6.1	mac	0	2023-12-21	15:57:31	1	1	1	experiment	1	getValueVector	0.2000000000000000111		0		1	1	1	1	1	no erasure	no erasure		1		0	0	291	191	5815		0			0	2		0			0				0.6999999999999999556															1	0	wind	cloud	Planet1A.png	Ship1A.png	blank.png	blank.png		0
6.6.1	mac	0	2023-12-21	15:57:31	1	1	1	experiment	1	getValueVector	0.2000000000000000111		0		1	1	1	1	1	no erasure	no erasure		1		0	0	292	193	5815		0			0	2		0			0				0.6999999999999999556															1	0	wind	cloud	Planet1A.png	Ship1A.png	blank.png	blank.png		0
6.6.1	mac	0	2023-12-21	15:57:31	1	1	1	experiment	1	getValueVector	0.2000000000000000111		0		1	1	1	1	1	no erasure	no erasure		1		0	0	293	195	5815		0			0	2		0			0				0.6999999999999999556															1	0	wind	cloud	Planet1A.png	Ship1A.png	blank.png	blank.png		0
6.6.1	mac	0	2023-12-21	15:57:31	1	1	1	experiment	1	getValueVector	0.2000000000000000111		0		1	1	1	1	1	no erasure	no erasure		1		0	0	294	196	5815		0			0	2		0			0				0.6999999999999999556															1	0	wind	cloud	Planet1A.png	Ship1A.png	blank.png	blank.png		0
6.6.1	mac	0	2023-12-21	15:57:31	1	1	1	experiment	1	getValueVector	0.2000000000000000111		0		1	1	1	1	1	no erasure	no erasure		1		0	0	295	197	5815		0			0	2		0			0				0.6999999999999999556															1	0	wind	cloud	Planet1A.png	Ship1A.png	blank.png	blank.png		0
6.6.1	mac	0	2023-12-21	15:57:31	1	1	1	experiment	1	getValueVector	0.2000000000000000111		0		1	1	1	1	1	no erasure	no erasure		1		0	0	296	198	5815		0			0	2		0			0				0.6999999999999999556															1	0	wind	cloud	Planet1A.png	Ship1A.png	blank.png	blank.png		0
6.6.1	mac	0	2023-12-21	15:57:31	1	1	1	experiment	1	getValueVector	0.2000000000000000111		0		1	1	1	1	1	no erasure	no erasure		1		0	0	297	199	5815		0			0	2		0			0				0.6999999999999999556															1	0	wind	cloud	Planet1A.png	Ship1A.png	blank.png	blank.png		0
6.6.1	mac	0	2023-12-21	15:57:31	1	1	1	experiment	1	getValueVector	0.2000000000000000111		0		1	1	1	1	1	no erasure	no erasure		1		0	0	298	200	5815		0			0	2		0			0				0.6999999999999999556															1	0	wind	cloud	Planet1A.png	Ship1A.png	blank.png	blank.png		0
6.6.1	mac	0	2023-12-21	15:57:31	1	1	1	experiment	1	getValueVector	0.2000000000000000111		0		1	1	1	1	1	no erasure	no erasure		1		0	0	299	200	5815		0			0	2		0			0				0.6999999999999999556															1	0	wind	cloud	Planet1A.png	Ship1A.png	blank.png	blank.png		0
6.6.1	mac	0	2023-12-21	15:57:31	1	1	1	experiment	1	getValueVector	0.2000000000000000111		0		1	1	1	1	1	no erasure	no erasure		1		0	0	300	201	5815		0			0	2		0			0				0.6999999999999999556															1	0	wind	cloud	Planet1A.png	Ship1A.png	blank.png	blank.png		0
6.6.1	mac	0	2023-12-21	15:57:31	1	1	1	experiment	1	getValueVector	0.2000000000000000111		0		1	1	1	1	1	no erasure	no erasure		1		0	0	301	201	5815		0			0	2		0			0				0.6999999999999999556															1	0	wind	cloud	Planet1A.png	Ship1A.png	blank.png	blank.png		0
6.6.1	mac	0	2023-12-21	15:57:31	1	1	1	experiment	1	getValueVector	0.2000000000000000111		0		1	1	1	1	1	no erasure	no erasure		1		0	0	302	201	5815		0			0	2		0			0				0.6999999999999999556															1	0	wind	cloud	Planet1A.png	Ship1A.png	blank.png	blank.png		0
6.6.1	mac	0	2023-12-21	15:57:31	1	1	1	experiment	1	getValueVector	0.2000000000000000111		0		1	1	1	1	1	no erasure	no erasure		1		0	0	303	201	5815		0			0	2		0			0				0.6999999999999999556															1	0	wind	cloud	Planet1A.png	Ship1A.png	blank.png	blank.png		0
6.6.1	mac	0	2023-12-21	15:57:31	1	1	1	experiment	1	getValueVector	0.2000000000000000111		0		1	1	1	1	1	no erasure	no erasure		1		0	0	304	201	5815		0			0	2		0			0				0.6999999999999999556															1	0	wind	cloud	Planet1A.png	Ship1A.png	blank.png	blank.png		0
6.6.1	mac	0	2023-12-21	15:57:31	1	1	1	experiment	1	getValueVector	0.2000000000000000111		0		1	1	1	1	1	no erasure	no erasure		1		0	0	305	200	5815		0			0	2		0			0				0.6999999999999999556															1	0	wind	cloud	Planet1A.png	Ship1A.png	blank.png	blank.png		0
6.6.1	mac	0	2023-12-21	15:57:31	1	1	1	experiment	1	getValueVector	0.2000000000000000111		0		1	1	1	1	1	no erasure	no erasure		1		0	0	306	200	5815		0			0	2		0			0				0.6999999999999999556															1	0	wind	cloud	Planet1A.png	Ship1A.png	blank.png	blank.png		0
6.6.1	mac	0	2023-12-21	15:57:31	1	1	1	experiment	1	getValueVector	0.2000000000000000111		0		1	1	1	1	1	no erasure	no erasure		1		0	0	307	199	5815		0			0	2		0			0				0.6999999999999999556															1	0	wind	cloud	Planet1A.png	Ship1A.png	blank.png	blank.png		0
6.6.1	mac	0	2023-12-21	15:57:31	1	1	1	experiment	1	getValueVector	0.2000000000000000111		0		1	1	1	1	1	no erasure	no erasure		1		0	0	308	198	5815		0			0	2		0			0				0.6999999999999999556															1	0	wind	cloud	Planet1A.png	Ship1A.png	blank.png	blank.png		0
6.6.1	mac	0	2023-12-21	15:57:31	1	1	1	experiment	1	getValueVector	0.2000000000000000111		0		1	1	1	1	1	no erasure	no erasure		1		0	0	309	197	5815		0			0	2		0			0				0.6999999999999999556															1	0	wind	cloud	Planet1A.png	Ship1A.png	blank.png	blank.png		0
6.6.1	mac	0	2023-12-21	15:57:31	1	1	1	experiment	1	getValueVector	0.2000000000000000111		0		1	1	1	1	1	no erasure	no erasure		1		0	0	310	196	5815		0			0	2		0			0				0.6999999999999999556															1	0	wind	cloud	Planet1A.png	Ship1A.png	blank.png	blank.png		0
6.6.1	mac	0	2023-12-21	15:57:31	1	1	1	experiment	1	getValueVector	0.2000000000000000111		0		1	1	1	1	1	no erasure	no erasure		1		0	0	311	194	5815		0			0	2		0			0				0.6999999999999999556															1	0	wind	cloud	Planet1A.png	Ship1A.png	blank.png	blank.png		0
6.6.1	mac	0	2023-12-21	15:57:31	1	1	1	experiment	1	getValueVector	0.2000000000000000111		0		1	1	1	1	1	no erasure	no erasure		1		0	0	312	193	5815		0			0	2		0			0				0.6999999999999999556															1	0	wind	cloud	Planet1A.png	Ship1A.png	blank.png	blank.png		0
6.6.1	mac	0	2023-12-21	15:57:31	1	1	1	experiment	1	getValueVector	0.2000000000000000111		0		1	1	1	1	1	no erasure	no erasure		1		0	0	313	191	5815		0			0	2		0			0				0.6999999999999999556															1	0	wind	cloud	Planet1A.png	Ship1A.png	blank.png	blank.png		0
6.6.1	mac	0	2023-12-21	15:57:31	1	1	1	experiment	1	getValueVector	0.2000000000000000111		0		1	1	1	1	1	no erasure	no erasure		1		0	0	314	190	5815		0			0	2		0			0				0.6999999999999999556															1	0	wind	cloud	Planet1A.png	Ship1A.png	blank.png	blank.png		0
6.6.1	mac	0	2023-12-21	15:57:31	1	1	1	experiment	1	getValueVector	0.2000000000000000111		0		1	1	1	1	1	no erasure	no erasure		1		0	0	315	188	5815		0			0	2		0			0				0.6999999999999999556															1	0	wind	cloud	Planet1A.png	Ship1A.png	blank.png	blank.png		0
6.6.1	mac	0	2023-12-21	15:57:31	1	1	1	experiment	1	getValueVector	0.2000000000000000111		0		1	1	1	1	1	no erasure	no erasure		1		0	0	316	186	5815		0			0	2		0			0				0.6999999999999999556															1	0	wind	cloud	Planet1A.png	Ship1A.png	blank.png	blank.png		0
6.6.1	mac	0	2023-12-21	15:57:31	1	1	1	experiment	1	getValueVector	0.2000000000000000111		0		1	1	1	1	1	no erasure	no erasure		1		0	0	317	184	5815		0			0	2		0			0				0.6999999999999999556															1	0	wind	cloud	Planet1A.png	Ship1A.png	blank.png	blank.png		0
6.6.1	mac	0	2023-12-21	15:57:31	1	1	1	experiment	1	getValueVector	0.2000000000000000111		0		1	1	1	1	1	no erasure	no erasure		1		0	0	318	181	5815		0			0	2		0			0				0.6999999999999999556															1	0	wind	cloud	Planet1A.png	Ship1A.png	blank.png	blank.png		0
6.6.1	mac	0	2023-12-21	15:57:31	1	1	1	experiment	1	getValueVector	0.2000000000000000111		0		1	1	1	1	1	no erasure	no erasure		1		0	0	319	179	5815		0			0	2		0			0				0.6999999999999999556															1	0	wind	cloud	Planet1A.png	Ship1A.png	blank.png	blank.png		0
6.6.1	mac	0	2023-12-21	15:57:31	1	1	1	experiment	1	getValueVector	0.2000000000000000111		0		1	1	1	1	1	no erasure	no erasure		1		0	0	320	177	5815		0			0	2		0			0				0.6999999999999999556															1	0	wind	cloud	Planet1A.png	Ship1A.png	blank.png	blank.png		0
6.6.1	mac	0	2023-12-21	15:57:31	1	1	1	experiment	1	getValueVector	0.2000000000000000111		0		1	1	1	1	1	no erasure	no erasure		1		0	0	321	174	5815		0			0	2		0			0				0.6999999999999999556															1	0	wind	cloud	Planet1A.png	Ship1A.png	blank.png	blank.png		0
6.6.1	mac	0	2023-12-21	15:57:31	1	1	1	experiment	1	getValueVector	0.2000000000000000111		0		1	1	1	1	1	no erasure	no erasure		1		0	0	322	171	5815		0			0	2		0			0				0.6999999999999999556															1	0	wind	cloud	Planet1A.png	Ship1A.png	blank.png	blank.png		0
6.6.1	mac	0	2023-12-21	15:57:31	1	1	1	experiment	1	getValueVector	0.2000000000000000111		0		1	1	1	1	1	no erasure	no erasure		1		0	0	323	169	5815		0			0	2		0			0				0.6999999999999999556															1	0	wind	cloud	Planet1A.png	Ship1A.png	blank.png	blank.png		0
6.6.1	mac	0	2023-12-21	15:57:31	1	1	1	experiment	1	getValueVector	0.2000000000000000111		0		1	1	1	1	1	no erasure	no erasure		1		0	0	324	166	5815		0			0	2		0			0				0.6999999999999999556															1	0	wind	cloud	Planet1A.png	Ship1A.png	blank.png	blank.png		0
6.6.1	mac	0	2023-12-21	15:57:31	1	1	1	experiment	1	getValueVector	0.2000000000000000111		0		1	1	1	1	1	no erasure	no erasure		1		0	0	325	163	5815		0			0	2		0			0				0.6999999999999999556															1	0	wind	cloud	Planet1A.png	Ship1A.png	blank.png	blank.png		0
6.6.1	mac	0	2023-12-21	15:57:31	1	1	1	experiment	1	getValueVector	0.2000000000000000111		0		1	1	1	1	1	no erasure	no erasure		1		0	0	326	160	5815		0			0	2		0			0				0.6999999999999999556															1	0	wind	cloud	Planet1A.png	Ship1A.png	blank.png	blank.png		0
6.6.1	mac	0	2023-12-21	15:57:31	1	1	1	experiment	1	getValueVector	0.2000000000000000111		0		1	1	1	1	1	no erasure	no erasure		1		0	0	327	157	5815		0			0	2		0			0				0.6999999999999999556															1	0	wind	cloud	Planet1A.png	Ship1A.png	blank.png	blank.png		0
6.6.1	mac	0	2023-12-21	15:57:31	1	1	1	experiment	1	getValueVector	0.2000000000000000111		0		1	1	1	1	1	no erasure	no erasure		1		0	0	328	154	5815		0			0	2		0			0				0.6999999999999999556															1	0	wind	cloud	Planet1A.png	Ship1A.png	blank.png	blank.png		0
6.6.1	mac	0	2023-12-21	15:57:31	1	1	1	experiment	1	getValueVector	0.2000000000000000111		0		1	1	1	1	1	no erasure	no erasure		1		0	0	329	151	5815		0			0	2		0			0				0.6999999999999999556															1	0	wind	cloud	Planet1A.png	Ship1A.png	blank.png	blank.png		0
6.6.1	mac	0	2023-12-21	15:57:31	1	1	1	experiment	1	getValueVector	0.2000000000000000111		0		1	1	1	1	1	no erasure	no erasure		1		0	0	330	148	5815		0			0	2		0			0				0.6999999999999999556															1	0	wind	cloud	Planet1A.png	Ship1A.png	blank.png	blank.png		0
6.6.1	mac	0	2023-12-21	15:57:31	1	1	1	experiment	1	getValueVector	0.2000000000000000111		0		1	1	1	1	1	no erasure	no erasure		1		0	0	331	145	5815		0			0	2		0			0				0.6999999999999999556															1	0	wind	cloud	Planet1A.png	Ship1A.png	blank.png	blank.png		0
6.6.1	mac	0	2023-12-21	15:57:31	1	1	1	experiment	1	getValueVector	0.2000000000000000111		0		1	1	1	1	1	no erasure	no erasure		1		0	0	332	142	5815		0			0	2		0			0				0.6999999999999999556															1	0	wind	cloud	Planet1A.png	Ship1A.png	blank.png	blank.png		0
6.6.1	mac	0	2023-12-21	15:57:31	1	1	1	experiment	1	getValueVector	0.2000000000000000111		0		1	1	1	1	1	no erasure	no erasure		1		0	0	333	138	5815		0			0	2		0			0				0.6999999999999999556															1	0	wind	cloud	Planet1A.png	Ship1A.png	blank.png	blank.png		0
6.6.1	mac	0	2023-12-21	15:57:31	1	1	1	experiment	1	getValueVector	0.2000000000000000111		0		1	1	1	1	1	no erasure	no erasure		1		0	0	334	135	5815		0			0	2		0			0				0.6999999999999999556															1	0	wind	cloud	Planet1A.png	Ship1A.png	blank.png	blank.png		0
6.6.1	mac	0	2023-12-21	15:57:31	1	1	1	experiment	1	getValueVector	0.2000000000000000111		0		1	1	1	1	1	no erasure	no erasure		1		0	0	335	132	5815		0			0	2		0			0				0.6999999999999999556															1	0	wind	cloud	Planet1A.png	Ship1A.png	blank.png	blank.png		0
6.6.1	mac	0	2023-12-21	15:57:31	1	1	1	experiment	1	getValueVector	0.2000000000000000111		0		1	1	1	1	1	no erasure	no erasure		1		0	0	336	129	5815		0			0	2		0			0				0.6999999999999999556															1	0	wind	cloud	Planet1A.png	Ship1A.png	blank.png	blank.png		0
6.6.1	mac	0	2023-12-21	15:57:31	1	1	1	experiment	1	getValueVector	0.2000000000000000111		0		1	1	1	1	1	no erasure	no erasure		1		0	0	337	125	5815		0			0	2		0			0				0.6999999999999999556															1	0	wind	cloud	Planet1A.png	Ship1A.png	blank.png	blank.png		0
6.6.1	mac	0	2023-12-21	15:57:31	1	1	1	experiment	1	getValueVector	0.2000000000000000111		0		1	1	1	1	1	no erasure	no erasure		1		0	0	338	122	5815		0			0	2		0			0				0.6999999999999999556															1	0	wind	cloud	Planet1A.png	Ship1A.png	blank.png	blank.png		0
6.6.1	mac	0	2023-12-21	15:57:31	1	1	1	experiment	1	getValueVector	0.2000000000000000111		0		1	1	1	1	1	no erasure	no erasure		1		0	0	339	119	5815		0			0	2		0			0				0.6999999999999999556															1	0	wind	cloud	Planet1A.png	Ship1A.png	blank.png	blank.png		0
6.6.1	mac	0	2023-12-21	15:57:31	1	1	1	experiment	1	getValueVector	0.2000000000000000111		0		1	1	1	1	1	no erasure	no erasure		1		0	0	340	116	5815		0			0	2		0			0				0.6999999999999999556															1	0	wind	cloud	Planet1A.png	Ship1A.png	blank.png	blank.png		0
6.6.1	mac	0	2023-12-21	15:57:31	1	1	1	experiment	1	getValueVector	0.2000000000000000111		0		1	1	1	1	1	no erasure	no erasure		1		0	0	341	112	5815		0			0	2		0			0				0.6999999999999999556															1	0	wind	cloud	Planet1A.png	Ship1A.png	blank.png	blank.png		0
6.6.1	mac	0	2023-12-21	15:57:31	1	1	1	experiment	1	getValueVector	0.2000000000000000111		0		1	1	1	1	1	no erasure	no erasure		1		0	0	342	109	5815		0			0	2		0			0				0.6999999999999999556															1	0	wind	cloud	Planet1A.png	Ship1A.png	blank.png	blank.png		0
6.6.1	mac	0	2023-12-21	15:57:31	1	1	1	experiment	1	getValueVector	0.2000000000000000111		0		1	1	1	1	1	no erasure	no erasure		1		0	0	343	106	5815		0			0	2		0			0				0.6999999999999999556															1	0	wind	cloud	Planet1A.png	Ship1A.png	blank.png	blank.png		0
6.6.1	mac	0	2023-12-21	15:57:31	1	1	1	experiment	1	getValueVector	0.2000000000000000111		0		1	1	1	1	1	no erasure	no erasure		1		0	0	344	103	5815		0			0	2		0			0				0.6999999999999999556															1	0	wind	cloud	Planet1A.png	Ship1A.png	blank.png	blank.png		0
6.6.1	mac	0	2023-12-21	15:57:31	1	1	1	experiment	1	getValueVector	0.2000000000000000111		0		1	1	1	1	1	no erasure	no erasure		1		0	0	345	100	5815		0			0	2		0			0				0.6999999999999999556															1	0	wind	cloud	Planet1A.png	Ship1A.png	blank.png	blank.png		0
6.6.1	mac	0	2023-12-21	15:57:31	1	1	1	experiment	1	getValueVector	0.2000000000000000111		0		1	1	1	1	1	no erasure	no erasure		1		0	0	346	97	5815		0			0	2		0			0				0.6999999999999999556															1	0	wind	cloud	Planet1A.png	Ship1A.png	blank.png	blank.png		0
6.6.1	mac	0	2023-12-21	15:57:31	1	1	1	experiment	1	getValueVector	0.2000000000000000111		0		1	1	1	1	1	no erasure	no erasure		1		0	0	347	94	5815		0			0	2		0			0				0.6999999999999999556															1	0	wind	cloud	Planet1A.png	Ship1A.png	blank.png	blank.png		0
6.6.1	mac	0	2023-12-21	15:57:31	1	1	1	experiment	1	getValueVector	0.2000000000000000111		0		1	1	1	1	1	no erasure	no erasure		1		0	0	348	91	5815		0			0	2		0			0				0.6999999999999999556															1	0	wind	cloud	Planet1A.png	Ship1A.png	blank.png	blank.png		0
6.6.1	mac	0	2023-12-21	15:57:31	1	1	1	experiment	1	getValueVector	0.2000000000000000111		0		1	1	1	1	1	no erasure	no erasure		1		0	0	349	88	5815		0			0	2		0			0				0.6999999999999999556															1	0	wind	cloud	Planet1A.png	Ship1A.png	blank.png	blank.png		0
6.6.1	mac	0	2023-12-21	15:57:31	1	1	1	experiment	1	getValueVector	0.2000000000000000111		0		1	1	1	1	1	no erasure	no erasure		1		0	0	350	85	5815		0			0	2		0			0				0.6999999999999999556															1	0	wind	cloud	Planet1A.png	Ship1A.png	blank.png	blank.png		0
6.6.1	mac	0	2023-12-21	15:57:31	1	1	1	experiment	1	getValueVector	0.2000000000000000111		0		1	1	1	1	1	no erasure	no erasure		1		0	0	351	82	5815		0			0	2		0			0				0.6999999999999999556															1	0	wind	cloud	Planet1A.png	Ship1A.png	blank.png	blank.png		0
6.6.1	mac	0	2023-12-21	15:57:31	1	1	1	experiment	1	getValueVector	0.2000000000000000111		0		1	1	1	1	1	no erasure	no erasure		1		0	0	352	79	5815		0			0	2		0			0				0.6999999999999999556															1	0	wind	cloud	Planet1A.png	Ship1A.png	blank.png	blank.png		0
6.6.1	mac	0	2023-12-21	15:57:31	1	1	1	experiment	1	getValueVector	0.2000000000000000111		0		1	1	1	1	1	no erasure	no erasure		1		0	0	353	76	5815		0			0	2		0			0				0.6999999999999999556															1	0	wind	cloud	Planet1A.png	Ship1A.png	blank.png	blank.png		0
6.6.1	mac	0	2023-12-21	15:57:31	1	1	1	experiment	1	getValueVector	0.2000000000000000111		0		1	1	1	1	1	no erasure	no erasure		1		0	0	354	73	5815		0			0	2		0			0				0.6999999999999999556															1	0	wind	cloud	Planet1A.png	Ship1A.png	blank.png	blank.png		0
6.6.1	mac	0	2023-12-21	15:57:31	1	1	1	experiment	1	getValueVector	0.2000000000000000111		0		1	1	1	1	1	no erasure	no erasure		1		0	0	355	70	5815		0			0	2		0			0				0.6999999999999999556															1	0	wind	cloud	Planet1A.png	Ship1A.png	blank.png	blank.png		0
6.6.1	mac	0	2023-12-21	15:57:31	1	1	1	experiment	1	getValueVector	0.2000000000000000111		0		1	1	1	1	1	no erasure	no erasure		1		0	0	356	68	5815		0			0	2		0			0				0.6999999999999999556															1	0	wind	cloud	Planet1A.png	Ship1A.png	blank.png	blank.png		0
6.6.1	mac	0	2023-12-21	15:57:31	1	1	1	experiment	1	getValueVector	0.2000000000000000111		0		1	1	1	1	1	no erasure	no erasure		1		0	0	357	65	5815		0			0	2		0			0				0.6999999999999999556															1	0	wind	cloud	Planet1A.png	Ship1A.png	blank.png	blank.png		0
6.6.1	mac	0	2023-12-21	15:57:31	1	1	1	experiment	1	getValueVector	0.2000000000000000111		0		1	1	1	1	1	no erasure	no erasure		1		0	0	358	63	5815		0			0	2		0			0				0.6999999999999999556															1	0	wind	cloud	Planet1A.png	Ship1A.png	blank.png	blank.png		0
6.6.1	mac	0	2023-12-21	15:57:31	1	1	1	experiment	1	getValueVector	0.2000000000000000111		0		1	1	1	1	1	no erasure	no erasure		1		0	0	359	60	5815		0			0	2		0			0				0.6999999999999999556															1	0	wind	cloud	Planet1A.png	Ship1A.png	blank.png	blank.png		0
6.6.1	mac	0	2023-12-21	15:57:31	1	1	1	experiment	1	getValueVector	0.2000000000000000111		0		1	1	1	1	1	no erasure	no erasure		1		0	0	360	58	5815		0			0	2		0			0				0.6999999999999999556															1	0	wind	cloud	Planet1A.png	Ship1A.png	blank.png	blank.png		0
6.6.1	mac	0	2023-12-21	15:57:31	1	1	1	experiment	1	clock	0.2000000000000000111	0.2000000000000000111	243		1	1	1	1	1	no erasure	no erasure		1		0	0	360	58	5815		0			0	2		10			0				0.6999999999999999556															1	0	wind	cloud	Planet1A.png	Ship1A.png	blank.png	blank.png		0
6.6.1	mac	0	2023-12-21	15:57:31	1	1	1	experiment	1	feedback	0.2000000000000000111	0.2000000000000000111	10	0.2000000000000000111	1	2	1	1	1	no erasure	no erasure		0		0	0	360	58	5815		0			0	2		10	143.4960000000000093223	1993				0.1537169036813352541	0.6999999999999999556															1	0	wind	cloud	Planet1A.png	Ship1A.png	Mushroom1A.png	blank.png		
6.6.1	mac	0	2023-12-21	15:57:31	1	1	1	experiment	1	getValueVector	0.2000000000000000111	0.2000000000000000111	0	0.2000000000000000111	1	2	2	2	2	no erasure	no erasure	no erasure	0		0	0	1	55	5815		0			0	2		10							0.6999999999999999556															2	0	wind	cloud	Planet1A.png	Ship1A.png	Mushroom1A.png	blank.png		
6.6.1	mac	0	2023-12-21	15:57:31	1	1	1	experiment	1	getValueVector	0.2000000000000000111	0.2000000000000000111	0	0.2000000000000000111	1	2	2	2	2	no erasure	no erasure	no erasure	0		0	0	2	53	5815		0			0	2		10							0.6999999999999999556															2	0	wind	cloud	Planet1A.png	Ship1A.png	Mushroom1A.png	blank.png		
6.6.1	mac	0	2023-12-21	15:57:31	1	1	1	experiment	1	getValueVector	0.2000000000000000111	0.2000000000000000111	0	0.2000000000000000111	1	2	2	2	2	no erasure	no erasure	no erasure	0		0	0	3	51	5815		0			0	2		10							0.6999999999999999556															2	0	wind	cloud	Planet1A.png	Ship1A.png	Mushroom1A.png	blank.png		
6.6.1	mac	0	2023-12-21	15:57:31	1	1	1	experiment	1	getValueVector	0.2000000000000000111	0.2000000000000000111	0	0.2000000000000000111	1	2	2	2	2	no erasure	no erasure	no erasure	0		0	0	4	48	5815		0			0	2		10							0.6999999999999999556															2	0	wind	cloud	Planet1A.png	Ship1A.png	Mushroom1A.png	blank.png		
6.6.1	mac	0	2023-12-21	15:57:31	1	1	1	experiment	1	getValueVector	0.2000000000000000111	0.2000000000000000111	0	0.2000000000000000111	1	2	2	2	2	no erasure	no erasure	no erasure	0		0	0	5	46	5815		0			0	2		10							0.6999999999999999556															2	0	wind	cloud	Planet1A.png	Ship1A.png	Mushroom1A.png	blank.png		
6.6.1	mac	0	2023-12-21	15:57:31	1	1	1	experiment	1	getValueVector	0.2000000000000000111	0.2000000000000000111	0	0.2000000000000000111	1	2	2	2	2	no erasure	no erasure	no erasure	0		0	0	6	44	5815		0			0	2		10							0.6999999999999999556															2	0	wind	cloud	Planet1A.png	Ship1A.png	Mushroom1A.png	blank.png		
6.6.1	mac	0	2023-12-21	15:57:31	1	1	1	experiment	1	getValueVector	0.2000000000000000111	0.2000000000000000111	0	0.2000000000000000111	1	2	2	2	2	no erasure	no erasure	no erasure	0		0	0	7	42	5815		0			0	2		10							0.6999999999999999556															2	0	wind	cloud	Planet1A.png	Ship1A.png	Mushroom1A.png	blank.png		
6.6.1	mac	0	2023-12-21	15:57:31	1	1	1	experiment	1	getValueVector	0.2000000000000000111	0.2000000000000000111	0	0.2000000000000000111	1	2	2	2	2	no erasure	no erasure	no erasure	0		0	0	8	40	5815		0			0	2		10							0.6999999999999999556															2	0	wind	cloud	Planet1A.png	Ship1A.png	Mushroom1A.png	blank.png		
6.6.1	mac	0	2023-12-21	15:57:31	1	1	1	experiment	1	getValueVector	0.2000000000000000111	0.2000000000000000111	0	0.2000000000000000111	1	2	2	2	2	no erasure	no erasure	no erasure	0		0	0	9	38	5815		0			0	2		10							0.6999999999999999556															2	0	wind	cloud	Planet1A.png	Ship1A.png	Mushroom1A.png	blank.png		
6.6.1	mac	0	2023-12-21	15:57:31	1	1	1	experiment	1	getValueVector	0.2000000000000000111	0.2000000000000000111	0	0.2000000000000000111	1	2	2	2	2	no erasure	no erasure	no erasure	0		0	0	10	36	5815		0			0	2		10							0.6999999999999999556															2	0	wind	cloud	Planet1A.png	Ship1A.png	Mushroom1A.png	blank.png		
6.6.1	mac	0	2023-12-21	15:57:31	1	1	1	experiment	1	getValueVector	0.2000000000000000111	0.2000000000000000111	0	0.2000000000000000111	1	2	2	2	2	no erasure	no erasure	no erasure	0		0	0	11	34	5815		0			0	2		10							0.6999999999999999556															2	0	wind	cloud	Planet1A.png	Ship1A.png	Mushroom1A.png	blank.png		
6.6.1	mac	0	2023-12-21	15:57:31	1	1	1	experiment	1	getValueVector	0.2000000000000000111	0.2000000000000000111	0	0.2000000000000000111	1	2	2	2	2	no erasure	no erasure	no erasure	0		0	0	12	33	5815		0			0	2		10							0.6999999999999999556															2	0	wind	cloud	Planet1A.png	Ship1A.png	Mushroom1A.png	blank.png		
6.6.1	mac	0	2023-12-21	15:57:31	1	1	1	experiment	1	getValueVector	0.2000000000000000111	0.2000000000000000111	0	0.2000000000000000111	1	2	2	2	2	no erasure	no erasure	no erasure	0		0	0	13	31	5815		0			0	2		10							0.6999999999999999556															2	0	wind	cloud	Planet1A.png	Ship1A.png	Mushroom1A.png	blank.png		
6.6.1	mac	0	2023-12-21	15:57:31	1	1	1	experiment	1	getValueVector	0.2000000000000000111	0.2000000000000000111	0	0.2000000000000000111	1	2	2	2	2	no erasure	no erasure	no erasure	0		0	0	14	29	5815		0			0	2		10							0.6999999999999999556															2	0	wind	cloud	Planet1A.png	Ship1A.png	Mushroom1A.png	blank.png		
