build	computer.platform	computer.touch	date	time	subject	group	sessionid	blockcode	blocknum	trialcode	list.ITI.currentvalue	list.preClockFreeze.currentvalue	latency	list.ISI.currentvalue	block	trialCount	trial	run_trial	block_trial	block_type	trial_type	last_block_type	generate_new_erasure	trial_since_erasure_gen	deg_index_att	deg_index_era	att_index	era_index	seed	list.era_loc.currentvalue	has_erasure	list.att_loc.currentvalue	n_clicks	timeout_block	timeouts_remain	stim_center_deg	startPos	pos_shifted	rt_shifted	mag	inc_rg	inc	rng	freq	choose_stim	erasure_value	erasure_RT	right_index	left_index	stim_left_deg	stim_right_deg	trial	erasure_blocks	attentional_control	local_uncertainty	picture.planet.item.1	picture.animatedCircle.item.1	picture.feedback2.items.1	picture.stim.item.1	Earnings	totalEarnings
6.6.1	mac	0	2023-12-04	10:30:08	1	1	1	experiment	1	clock	340	600	653		1	1	1	1	1	no erasure	no erasure		1				0	0	6820		0			0	2		81			0				0.6999999999999999556								1	0	cloud	wind	Planet1A.png	Ship1A.png	blank.png	blank.png		0
6.6.1	mac	0	2023-12-04	10:30:08	1	1	1	experiment	1	feedback	340	600	700	310	1	2	1	1	1	no erasure	no erasure		0				0	0	6820		0			0	2		81	68.6159999999999996589	953	199	150	199	0.0038562521813102655	0.6999999999999999556								1	0	cloud	wind	Planet1A.png	Ship1A.png	Mushroom1A.png	blank.png	0.0449999999999999983	0.0449999999999999983
6.6.1	mac	0	2023-12-04	10:30:08	1	1	1	experiment	1	clock	400	620	608	310	1	2	2	2	2	no erasure	no erasure	no erasure	0				0	0	6820		0			0	2		78			199				0.6999999999999999556								2	0	cloud	wind	Planet1A.png	Ship1A.png	Mushroom1A.png	blank.png	0.0449999999999999983	0.0449999999999999983
6.6.1	mac	0	2023-12-04	10:30:08	1	1	1	experiment	1	feedback	400	620	700	480	1	3	2	2	2	no erasure	no erasure	no erasure	0				0	0	6820		0			0	2		78	54.5760000000000005116	758	201	10	10	0.739977333401324544	0.6999999999999999556								2	0	cloud	wind	Planet1A.png	Ship1A.png	Mushroom1A.png	blank.png	0.0029999999999999996	0.048000000000000001
6.6.1	mac	0	2023-12-04	10:30:08	1	1	1	experiment	1	clock	370	680	2610	480	1	3	3	3	3	no erasure	no erasure	no erasure	0				0	0	6820		0			0	2		38			201				0.6999999999999999556								3	0	cloud	wind	Planet1A.png	Ship1A.png	Mushroom1A.png	blank.png	0.0029999999999999996	0.048000000000000001
6.6.1	mac	0	2023-12-04	10:30:08	1	1	1	experiment	1	feedback	370	680	700	390	1	4	3	3	3	no erasure	no erasure	no erasure	0				0	0	6820		0			0	2		38	54.7199999999999988631	760	201	10	10	0.8454845056043669427	0.6999999999999999556								3	0	cloud	wind	Planet1A.png	Ship1A.png	Mushroom1A.png	blank.png	0.0029999999999999996	0.0510000000000000037
6.6.1	mac	0	2023-12-04	10:30:08	1	1	1	experiment	1	clock	350	530	1630	390	1	4	4	4	4	no erasure	no erasure	no erasure	0				0	0	6820		0			0	2		56			201				0.6999999999999999556								4	0	cloud	wind	Planet1A.png	Ship1A.png	Mushroom1A.png	blank.png	0.0029999999999999996	0.0510000000000000037
6.6.1	mac	0	2023-12-04	10:30:08	1	1	1	experiment	1	feedback	350	530	700	470	1	5	4	4	4	no erasure	no erasure	no erasure	0				0	0	6820		0			0	2		56	48.9600000000000008527	680	199	150	199	0.1330301727012335733	0.6999999999999999556								4	0	cloud	wind	Planet1A.png	Ship1A.png	Mushroom1A.png	blank.png	0.0449999999999999983	0.096000000000000002
6.6.1	mac	0	2023-12-04	10:30:08	1	1	1	experiment	1	clock	440	670	493	470	1	5	5	5	5	no erasure	no erasure	no erasure	0				0	0	6820		0			0	2		78			199				0.6999999999999999556								5	0	cloud	wind	Planet1A.png	Ship1A.png	Mushroom1A.png	blank.png	0.0449999999999999983	0.096000000000000002
6.6.1	mac	0	2023-12-04	10:30:08	1	1	1	experiment	1	feedback	440	670	700	430	1	6	5	5	5	no erasure	no erasure	no erasure	0				0	0	6820		0			0	2		78	46.2959999999999993747	643	198	10	10	0.8458563838726506079	0.6999999999999999556								5	0	cloud	wind	Planet1A.png	Ship1A.png	Mushroom1A.png	blank.png	0.0029999999999999996	0.0990000000000000047
6.6.1	mac	0	2023-12-04	10:30:08	1	1	1	experiment	1	clock	360	520	2251	430	1	6	6	6	6	no erasure	no erasure	no erasure	0				0	0	6820		0			0	2		42			198				0.6999999999999999556								6	0	cloud	wind	Planet1A.png	Ship1A.png	Mushroom1A.png	blank.png	0.0029999999999999996	0.0990000000000000047
6.6.1	mac	0	2023-12-04	10:30:08	1	1	1	experiment	1	feedback	360	520	700	450	1	7	6	6	6	no erasure	no erasure	no erasure	0				0	0	6820		0			0	2		42	43.2719999999999984652	601	197	10	10	0.8280304811960157441	0.6999999999999999556								6	0	cloud	wind	Planet1A.png	Ship1A.png	Mushroom1A.png	blank.png	0.0029999999999999996	0.1020000000000000073
6.6.1	mac	0	2023-12-04	10:30:08	1	1	1	experiment	1	clock	320	580	842	450	1	7	7	7	7	no erasure	no erasure	no erasure	0				0	0	6820		0			0	2		71			197				0.6999999999999999556								7	0	cloud	wind	Planet1A.png	Ship1A.png	Mushroom1A.png	blank.png	0.0029999999999999996	0.1020000000000000073
6.6.1	mac	0	2023-12-04	10:30:08	1	1	1	experiment	1	feedback	320	580	700	360	1	8	7	7	7	no erasure	no erasure	no erasure	0				0	0	6820		0			0	2		71	46.2239999999999966462	642	198	150	198	0.6057155576082215998	0.6999999999999999556								7	0	cloud	wind	Planet1A.png	Ship1A.png	Mushroom1A.png	blank.png	0.0449999999999999983	0.1470000000000000195
6.6.1	mac	0	2023-12-04	10:30:08	1	1	1	experiment	1	clock	250	690	3492	360	1	8	8	8	8	no erasure	no erasure	no erasure	0				0	0	6820		0			0	2		17			198				0.6999999999999999556								8	0	cloud	wind	Planet1A.png	Ship1A.png	Mushroom1A.png	blank.png	0.0449999999999999983	0.1470000000000000195
6.6.1	mac	0	2023-12-04	10:30:08	1	1	1	experiment	1	feedback	250	690	700	540	1	9	8	8	8	no erasure	no erasure	no erasure	0				0	0	6820		0			0	2		17	42.6240000000000023306	592	197	150	197	0.3077154965856381263	0.6999999999999999556								8	0	cloud	wind	Planet1A.png	Ship1A.png	Mushroom1A.png	blank.png	0.0449999999999999983	0.192000000000000004
6.6.1	mac	0	2023-12-04	10:30:08	1	1	1	experiment	1	clock	500	660	3018	540	1	9	9	9	9	no erasure	no erasure	no erasure	0				0	0	6820		0			0	2		26			197				0.6999999999999999556								9	0	cloud	wind	Planet1A.png	Ship1A.png	Mushroom1A.png	blank.png	0.0449999999999999983	0.192000000000000004
6.6.1	mac	0	2023-12-04	10:30:08	1	1	1	experiment	1	feedback	500	660	700	580	1	10	9	9	9	no erasure	no erasure	no erasure	0				0	0	6820		0			0	2		26	40.8960000000000007958	568	195	150	195	0.4413922125104330907	0.6999999999999999556								9	0	cloud	wind	Planet1A.png	Ship1A.png	Mushroom1A.png	blank.png	0.0449999999999999983	0.2369999999999999885
6.6.1	mac	0	2023-12-04	10:30:08	1	1	1	experiment	1	clock	490	700	3970	580	1	10	10	10	10	no erasure	no erasure	no erasure	0				0	0	6820		0			0	2		4			195				0.6999999999999999556								10	0	cloud	wind	Planet1A.png	Ship1A.png	Mushroom1A.png	blank.png	0.0449999999999999983	0.2369999999999999885
6.6.1	mac	0	2023-12-04	10:30:08	1	1	1	experiment	1	feedback	490	700	700	330	1	11	10	10	10	no erasure	no erasure	no erasure	0				0	0	6820		0			0	2		4	30.2399999999999984368	420	186	150	186	0.4673117854323498577	0.6999999999999999556								10	0	cloud	wind	Planet1A.png	Ship1A.png	Mushroom1A.png	blank.png	0.0449999999999999983	0.2819999999999999729
6.6.1	mac	0	2023-12-04	10:30:08	1	1	1	experiment	1	clock	210	540	5174	330	1	11	11	11	1	attention	attention	no erasure	0				1	0	6820		0	158	0	0	2	248	81			186				0.6999999999999999556	0					233	263	11	0	cloud	wind	Planet1A.png	Ship1A.png	Mushroom1A.png	fog0.png	0.0449999999999999983	0.2819999999999999729
6.6.1	mac	0	2023-12-04	10:30:08	1	1	1	experiment	1	feedback	210	540	700	560	1	12	11	11	1	attention	attention	no erasure	0				1	0	6820		0	158	0	0	2	248	81	34.1280000000000001137	474	178	150	178	0.649938964436282185	0.6999999999999999556	0					233	263	11	0	cloud	wind	Planet1A.png	Ship1A.png	Mushroom1A.png	fog0.png	0.0449999999999999983	0.3269999999999999574
6.6.1	mac	0	2023-12-04	10:30:08	1	1	1	experiment	1	clock	450	510	1889	560	1	12	12	12	2	attention	attention	attention	0				1	0	6820		0	158	0	0	2	248	45			178				0.6999999999999999556	0					233	263	12	0	cloud	wind	Planet1A.png	Ship1A.png	Mushroom1A.png	fog0.png	0.0449999999999999983	0.3269999999999999574
6.6.1	mac	0	2023-12-04	10:30:08	1	1	1	experiment	1	feedback	450	510	700	460	1	13	12	12	2	attention	attention	attention	0				1	0	6820		0	158	0	0	2	248	45	28.0079999999999991189	389	165	150	165	0.2794039077776027669	0.6999999999999999556	0					233	263	12	0	cloud	wind	Planet1A.png	Ship1A.png	Mushroom1A.png	fog0.png	0.0449999999999999983	0.3719999999999999418
6.6.1	mac	0	2023-12-04	10:30:08	1	1	1	experiment	1	clock	100	610	3038	460	1	13	13	13	3	attention	attention	attention	0				1	0	6820		0	158	0	0	2	248	24			165				0.6999999999999999556	0					233	263	13	0	cloud	wind	Planet1A.png	Ship1A.png	Mushroom1A.png	fog0.png	0.0449999999999999983	0.3719999999999999418
6.6.1	mac	0	2023-12-04	10:30:08	1	1	1	experiment	1	feedback	100	610	700	550	1	14	13	13	3	attention	attention	attention	0				1	0	6820		0	158	0	0	2	248	24	35.1360000000000027853	488	160	10	10	0.9499494591611319372	0.6999999999999999556	0					233	263	13	0	cloud	wind	Planet1A.png	Ship1A.png	Mushroom1A.png	fog0.png	0.0029999999999999996	0.3749999999999999445
6.6.1	mac	0	2023-12-04	10:30:08	1	1	1	experiment	1	clock	430	570	677	550	1	14	14	14	4	attention	attention	attention	0				1	0	6820		0	158	0	0	2	248	71			160				0.6999999999999999556	0					233	263	14	0	cloud	wind	Planet1A.png	Ship1A.png	Mushroom1A.png	fog0.png	0.0029999999999999996	0.3749999999999999445
6.6.1	mac	0	2023-12-04	10:30:08	1	1	1	experiment	1	feedback	430	570	700	290	1	15	14	14	4	attention	attention	attention	0				1	0	6820		0	158	0	0	2	248	71	34.3440000000000011937	477	149	149	149	0.0317968048695001781	0.6999999999999999556	0					233	263	14	0	cloud	wind	Planet1A.png	Ship1A.png	Mushroom1A.png	fog0.png	0.0446999999999999967	0.419699999999999962
6.6.1	mac	0	2023-12-04	10:30:08	1	1	1	experiment	1	clock	470	650	2664	290	1	15	15	15	5	attention	attention	attention	0				1	0	6820		0	158	0	0	2	248	32			149				0.6999999999999999556	0					233	263	15	0	cloud	wind	Planet1A.png	Ship1A.png	Mushroom1A.png	fog0.png	0.0446999999999999967	0.419699999999999962
6.6.1	mac	0	2023-12-04	10:30:08	1	1	1	experiment	1	feedback	470	650	700	210	1	16	15	15	5	attention	attention	attention	0				1	0	6820		0	158	0	0	2	248	32	37.0080000000000026716	514	140	140	140	0.450422733428520794	0.6999999999999999556	0					233	263	15	0	cloud	wind	Planet1A.png	Ship1A.png	Mushroom1A.png	fog0.png	0.0419999999999999957	0.4616999999999999438
6.6.1	mac	0	2023-12-04	10:30:08	1	1	1	experiment	1	clock	140	550	1650	210	1	16	16	16	6	attention	attention	attention	0				1	0	6820		0	158	0	0	2	248	54			140				0.6999999999999999556	0					233	263	16	0	cloud	wind	Planet1A.png	Ship1A.png	Mushroom1A.png	fog0.png	0.0419999999999999957	0.4616999999999999438
6.6.1	mac	0	2023-12-04	10:30:08	1	1	1	experiment	1	feedback	140	550	700	600	1	17	16	16	6	attention	attention	attention	0				1	0	6820		0	158	0	0	2	248	54	43.2000000000000028422	600	131	131	131	0.2350784366100743539	0.6999999999999999556	0					233	263	16	0	cloud	wind	Planet1A.png	Ship1A.png	Mushroom1A.png	fog0.png	0.0392999999999999947	0.5009999999999998899
6.6.1	mac	0	2023-12-04	10:30:08	1	1	1	experiment	1	clock	160	630	4582	600	1	17	17	17	7	attention	attention	attention	0				1	0	6820		0	158	0	0	2	248	96			131				0.6999999999999999556	0					233	263	17	0	cloud	wind	Planet1A.png	Ship1A.png	Mushroom1A.png	fog0.png	0.0392999999999999947	0.5009999999999998899
6.6.1	mac	0	2023-12-04	10:30:08	1	1	1	experiment	1	feedback	160	630	700	520	1	18	17	17	7	attention	attention	attention	0				1	0	6820		0	158	0	0	2	248	96	45.5039999999999977831	632	121	10	10	0.9128634042369349055	0.6999999999999999556	0					233	263	17	0	cloud	wind	Planet1A.png	Ship1A.png	Mushroom1A.png	fog0.png	0.0029999999999999996	0.5039999999999998925
6.6.1	mac	0	2023-12-04	10:30:08	1	1	1	experiment	1	clock	380	590	3146	520	1	18	18	18	8	attention	attention	attention	0				1	0	6820		0	158	0	0	2	248	21			121				0.6999999999999999556	0					233	263	18	0	cloud	wind	Planet1A.png	Ship1A.png	Mushroom1A.png	fog0.png	0.0029999999999999996	0.5039999999999998925
6.6.1	mac	0	2023-12-04	10:30:08	1	1	1	experiment	1	feedback	380	590	700	440	1	19	18	18	8	attention	attention	attention	0				1	0	6820		0	158	0	0	2	248	21	32.1120000000000018758	446	104	104	104	0.1461744078309681338	0.6999999999999999556	0					233	263	18	0	cloud	wind	Planet1A.png	Ship1A.png	Mushroom1A.png	fog0.png	0.0311999999999999986	0.535199999999999898
6.6.1	mac	0	2023-12-04	10:30:08	1	1	1	experiment	1	clock	420	640	1759	440	1	19	19	19	9	attention	attention	attention	0				1	0	6820		0	158	0	0	2	248	50			104				0.6999999999999999556	0					233	263	19	0	cloud	wind	Planet1A.png	Ship1A.png	Mushroom1A.png	fog0.png	0.0311999999999999986	0.535199999999999898
6.6.1	mac	0	2023-12-04	10:30:08	1	1	1	experiment	1	feedback	420	640	700	340	1	20	19	19	9	attention	attention	attention	0				1	0	6820		0	158	0	0	2	248	50	36.6480000000000032401	509	96	10	10	0.7199552165623650524	0.6999999999999999556	0					233	263	19	0	cloud	wind	Planet1A.png	Ship1A.png	Mushroom1A.png	fog0.png	0.0029999999999999996	0.5381999999999999007
6.6.1	mac	0	2023-12-04	10:30:08	1	1	1	experiment	1	clock	170	560	3958	340	1	20	20	20	10	attention	attention	attention	0				1	0	6820		0	158	0	0	2	248	4			96				0.6999999999999999556	0					233	263	20	0	cloud	wind	Planet1A.png	Ship1A.png	Mushroom1A.png	fog0.png	0.0029999999999999996	0.5381999999999999007
6.6.1	mac	0	2023-12-04	10:30:08	1	1	1	experiment	1	feedback	170	560	700	230	1	21	20	20	10	attention	attention	attention	0				1	0	6820		0	158	0	0	2	248	4	29.3760000000000012221	408	82	82	82	0.5109594379344395421	0.6999999999999999556	0					233	263	20	0	cloud	wind	Planet1A.png	Ship1A.png	Mushroom1A.png	fog0.png	0.0245999999999999969	0.5627999999999998559
6.6.1	mac	0	2023-12-04	10:30:08	1	1	1	experiment	1	clock	390	500	2074	230	1	21	21	21	1	erasure	erasure	attention	1	1			1	2	6820	174	1	158	0	0	2	264	5			82				0.6999999999999999556	0	10	174	189	159	249	279	21	1	cloud	wind	Planet1A.png	Ship1A.png	Mushroom1A.png	wind0.png	0.0245999999999999969	0.5627999999999998559
6.6.1	mac	0	2023-12-04	10:30:08	1	1	1	experiment	1	feedback	390	500	700	530	1	22	21	21	1	erasure	erasure	attention	0	1			1	2	6820	174	1	158	1	0	2	264	5	257.3279999999999745341	3574	3	10	3	0.1451981535985130134	0.6999999999999999556	1	10	174	189	159	249	279	21	1	cloud	wind	Planet1A.png	Ship1A.png	Mushroom1A.png	wind0.png	0.0029999999999999996	0.5657999999999998586
6.6.1	mac	0	2023-12-04	10:30:08	1	1	1	experiment	1	clock	150	620	4322	530	1	22	22	22	2	erasure	erasure	erasure	0	2			1	2	6820	174	1	158	1	0	2	264	62			3				0.6999999999999999556	1	10	174	189	159	249	279	22	1	cloud	wind	Planet1A.png	Ship1A.png	Mushroom1A.png	wind0.png	0.0029999999999999996	0.5657999999999998586
6.6.1	mac	0	2023-12-04	10:30:08	1	1	1	experiment	1	feedback	150	620	700	380	1	23	22	22	2	erasure	erasure	erasure	0	2			1	2	6820	174	1	158	2	0	2	264	62	264.3840000000000145519	3672	4	10	10	0.8727446016559248232	0.6999999999999999556	1	10	174	189	159	249	279	22	1	cloud	wind	Planet1A.png	Ship1A.png	Mushroom1A.png	wind0.png	0.0029999999999999996	0.5687999999999998613
6.6.1	mac	0	2023-12-04	10:30:08	1	1	1	experiment	1	clock	220	640	4540	380	1	23	23	23	3	erasure	no erasure	erasure	0	3			1	2	6820	174	0	158		1	1	264	96			4				0.6999999999999999556		7.3947368421052628307	174	189	159	249	279	23	1	cloud	wind	Planet1A.png	Ship1A.png	Mushroom1A.png	blank.png	0.0029999999999999996	0.5687999999999998613
6.6.1	mac	0	2023-12-04	10:30:08	1	1	1	experiment	1	feedback	220	640	700	200	1	24	23	23	3	erasure	no erasure	erasure	0	3			1	2	6820	174	0	158		1	1	264	96	42.4799999999999968736	590	53	10	10	0.7483188525653254874	0.6999999999999999556		7.3947368421052628307	174	189	159	249	279	23	1	cloud	wind	Planet1A.png	Ship1A.png	Mushroom1A.png	blank.png	0.0029999999999999996	0.5717999999999998639
6.6.1	mac	0	2023-12-04	10:30:08	1	1	1	experiment	1	clock	290	580	3014	200	1	24	24	24	4	erasure	no erasure	erasure	0	4			1	2	6820	174	0	158		1	0	264	26			53				0.6999999999999999556		6.0921052631578946901	174	189	159	249	279	24	1	cloud	wind	Planet1A.png	Ship1A.png	Mushroom1A.png	blank.png	0.0029999999999999996	0.5717999999999998639
6.6.1	mac	0	2023-12-04	10:30:08	1	1	1	experiment	1	feedback	290	580	700	270	1	25	24	24	4	erasure	no erasure	erasure	0	4			1	2	6820	174	0	158		1	0	264	26	40.6079999999999969873	564	42	42	42	0.6937153438790039095	0.6999999999999999556		6.0921052631578946901	174	189	159	249	279	24	1	cloud	wind	Planet1A.png	Ship1A.png	Mushroom1A.png	blank.png	0.0125999999999999984	0.5843999999999998085
6.6.1	mac	0	2023-12-04	10:30:08	1	1	1	experiment	1	clock	280	500	4723	270	1	25	25	25	5	erasure	erasure	erasure	1	1			1	3	6820	300	1	158	0	0	2	30	88			42				0.6999999999999999556	0	51	300	315	285	15	45	25	1	cloud	wind	Planet1A.png	Ship1A.png	Mushroom1A.png	wind0.png	0.0125999999999999984	0.5843999999999998085
6.6.1	mac	0	2023-12-04	10:30:08	1	1	1	experiment	1	feedback	280	500	700	280	1	26	25	25	5	erasure	erasure	erasure	0	1			1	3	6820	300	1	158	1	0	2	30	88	26.8560000000000016485	373	30	30	30	0.6159469342362011712	0.6999999999999999556	1	51	300	315	285	15	45	25	1	cloud	wind	Planet1A.png	Ship1A.png	Mushroom1A.png	wind0.png	0.0089999999999999993	0.5933999999999998165
6.6.1	mac	0	2023-12-04	10:30:08	1	1	1	experiment	1	clock	130	630	4970	280	1	26	26	26	6	erasure	erasure	erasure	0	2			1	3	6820	300	1	158	1	0	2	30	84			30				0.6999999999999999556	1	51	300	315	285	15	45	26	1	cloud	wind	Planet1A.png	Ship1A.png	Mushroom1A.png	wind0.png	0.0089999999999999993	0.5933999999999998165
6.6.1	mac	0	2023-12-04	10:30:08	1	1	1	experiment	1	feedback	130	630	700	240	1	27	26	26	6	erasure	erasure	erasure	0	2			1	3	6820	300	1	158	2	0	2	30	84	30.2399999999999984368	420	1	10	10	0.721702695060917776	0.6999999999999999556	1	51	300	315	285	15	45	26	1	cloud	wind	Planet1A.png	Ship1A.png	Mushroom1A.png	wind0.png	0.0029999999999999996	0.5963999999999998192
6.6.1	mac	0	2023-12-04	10:30:08	1	1	1	experiment	1	clock	110	560	3789	240	1	27	27	27	7	erasure	no erasure	erasure	0	3			1	3	6820	300	0	158		1	1	30	13			1				0.6999999999999999556		81.6451612903225765194	300	315	285	15	45	27	1	cloud	wind	Planet1A.png	Ship1A.png	Mushroom1A.png	blank.png	0.0029999999999999996	0.5963999999999998192
6.6.1	mac	0	2023-12-04	10:30:08	1	1	1	experiment	1	feedback	110	560	700	350	1	28	27	27	7	erasure	no erasure	erasure	0	3			1	3	6820	300	0	158		1	1	30	13	49.6079999999999969873	689	3	10	10	0.8543900572355813683	0.6999999999999999556		81.6451612903225765194	300	315	285	15	45	27	1	cloud	wind	Planet1A.png	Ship1A.png	Mushroom1A.png	blank.png	0.0029999999999999996	0.5993999999999998218
6.6.1	mac	0	2023-12-04	10:30:08	1	1	1	experiment	1	clock	230	610	2827	350	1	28	28	28	8	erasure	no erasure	erasure	0	4			1	3	6820	300	0	158		1	0	30	79			3				0.6999999999999999556		130.0322580645161281154	300	315	285	15	45	28	1	cloud	wind	Planet1A.png	Ship1A.png	Mushroom1A.png	blank.png	0.0029999999999999996	0.5993999999999998218
6.6.1	mac	0	2023-12-04	10:30:08	1	1	1	experiment	1	feedback	230	610	700	300	1	29	28	28	8	erasure	no erasure	erasure	0	4			1	3	6820	300	0	158		1	0	30	79	217.9439999999999884039	3027	81	10	10	0.7635227066379791649	0.6999999999999999556		130.0322580645161281154	300	315	285	15	45	28	1	cloud	wind	Planet1A.png	Ship1A.png	Mushroom1A.png	blank.png	0.0029999999999999996	0.6023999999999998245
6.6.1	mac	0	2023-12-04	10:30:08	1	1	1	experiment	1	clock	180	520	1296	300	1	29	29	29	9	erasure	erasure	erasure	1	1			1	4	6820	133	1	158	0	0	2	223	37			81				0.6999999999999999556	0	25	133	148	118	208	238	29	1	cloud	wind	Planet1A.png	Ship1A.png	Mushroom1A.png	wind0.png	0.0029999999999999996	0.6023999999999998245
6.6.1	mac	0	2023-12-04	10:30:08	1	1	1	experiment	1	feedback	180	520	700	250	1	30	29	29	9	erasure	erasure	erasure	0	1			1	4	6820	133	1	158	0	0	2	223	37	316.5120000000000004547	4396	37	37	37	0.6583090572753709235	0.6999999999999999556	0	25	133	148	118	208	238	29	1	cloud	wind	Planet1A.png	Ship1A.png	Mushroom1A.png	wind0.png	0.0110999999999999988	0.6134999999999998233
6.6.1	mac	0	2023-12-04	10:30:08	1	1	1	experiment	1	clock	480	510	2065	250	1	30	30	30	10	erasure	erasure	erasure	0	2			1	4	6820	133	1	158	0	0	2	223	22			37				0.6999999999999999556	0	25	133	148	118	208	238	30	1	cloud	wind	Planet1A.png	Ship1A.png	Mushroom1A.png	wind0.png	0.0110999999999999988	0.6134999999999998233
6.6.1	mac	0	2023-12-04	10:30:08	1	1	1	experiment	1	feedback	480	510	700	490	1	31	30	30	10	erasure	erasure	erasure	0	2			1	4	6820	133	1	158	0	0	2	223	22	317.8799999999999954525	4415	46	46	46	0.0926003160636407197	0.6999999999999999556	0	25	133	148	118	208	238	30	1	cloud	wind	Planet1A.png	Ship1A.png	Mushroom1A.png	wind0.png	0.013799999999999998	0.6272999999999998577
6.6.1	mac	0	2023-12-04	10:30:08	1	1	1	experiment	1	clock	260	590	816	490	1	31	31	31	1	attention	attention	erasure	0	3			2	4	6820	133	0	122	0	0	2	212	45			46				0.6999999999999999556	0	38.0909090909090863875	133	148	118	197	227	31	1	cloud	wind	Planet1A.png	Ship1A.png	Mushroom1A.png	fog0.png	0.013799999999999998	0.6272999999999998577
6.6.1	mac	0	2023-12-04	10:30:08	1	1	1	experiment	1	feedback	260	590	700	320	1	32	31	31	1	attention	attention	erasure	0	3			2	4	6820	133	0	122	0	0	2	212	45	310.7520000000000095497	4316	64	64	64	0.6870483070814629167	0.6999999999999999556	0	38.0909090909090863875	133	148	118	197	227	31	1	cloud	wind	Planet1A.png	Ship1A.png	Mushroom1A.png	fog0.png	0.0191999999999999983	0.6464999999999998526
6.6.1	mac	0	2023-12-04	10:30:08	1	1	1	experiment	1	clock	120	550	4631	320	1	32	32	32	2	attention	attention	attention	0	4			2	4	6820	133	0	122	0	0	2	212	71			64				0.6999999999999999556	0	44.6363636363636331339	133	148	118	197	227	32	1	cloud	wind	Planet1A.png	Ship1A.png	Mushroom1A.png	fog0.png	0.0191999999999999983	0.6464999999999998526
6.6.1	mac	0	2023-12-04	10:30:08	1	1	1	experiment	1	feedback	120	550	700	260	1	33	32	32	2	attention	attention	attention	0	4			2	4	6820	133	0	122	0	0	2	212	71	319.0319999999999822649	4431	60	10	10	0.8324916038737845136	0.6999999999999999556	0	44.6363636363636331339	133	148	118	197	227	32	1	cloud	wind	Planet1A.png	Ship1A.png	Mushroom1A.png	fog0.png	0.0029999999999999996	0.6494999999999998552
6.6.1	mac	0	2023-12-04	10:30:08	1	1	1	experiment	1	clock	240	600	3200	260	1	33	33	33	3	attention	attention	attention	0	5			2	4	6820	133	0	122	0	0	2	212	2			60				0.6999999999999999556	0	44.6363636363636331339	133	148	118	197	227	33	1	cloud	wind	Planet1A.png	Ship1A.png	Mushroom1A.png	fog0.png	0.0029999999999999996	0.6494999999999998552
6.6.1	mac	0	2023-12-04	10:30:08	1	1	1	experiment	1	feedback	240	600	700	370	1	34	33	33	3	attention	attention	attention	0	5			2	4	6820	133	0	122	0	0	2	212	2	327.6000000000000227374	4550	48	48	48	0.0326914680266500168	0.6999999999999999556	0	44.6363636363636331339	133	148	118	197	227	33	1	cloud	wind	Planet1A.png	Ship1A.png	Mushroom1A.png	fog0.png	0.0143999999999999996	0.6638999999999998236
6.6.1	mac	0	2023-12-04	10:30:08	1	1	1	experiment	1	clock	270	670	5105	370	1	34	34	34	4	attention	attention	attention	0	6			2	4	6820	133	0	122	0	0	2	212	64			48				0.6999999999999999556	0	44.6363636363636331339	133	148	118	197	227	34	1	cloud	wind	Planet1A.png	Ship1A.png	Mushroom1A.png	fog0.png	0.0143999999999999996	0.6638999999999998236
6.6.1	mac	0	2023-12-04	10:30:08	1	1	1	experiment	1	feedback	270	670	700	500	1	35	34	34	4	attention	attention	attention	0	6			2	4	6820	133	0	122	0	0	2	212	64	327.9599999999999795364	4555	48	48	48	0.4088936132399583201	0.6999999999999999556	0	44.6363636363636331339	133	148	118	197	227	34	1	cloud	wind	Planet1A.png	Ship1A.png	Mushroom1A.png	fog0.png	0.0143999999999999996	0.678299999999999792
6.6.1	mac	0	2023-12-04	10:30:08	1	1	1	experiment	1	clock	460	650	1682	500	1	35	35	35	5	attention	attention	attention	0	7			2	4	6820	133	0	122	0	0	2	212	36			48				0.6999999999999999556	0	44.6363636363636331339	133	148	118	197	227	35	1	cloud	wind	Planet1A.png	Ship1A.png	Mushroom1A.png	fog0.png	0.0143999999999999996	0.678299999999999792
6.6.1	mac	0	2023-12-04	10:30:08	1	1	1	experiment	1	feedback	460	650	700	420	1	36	35	35	5	attention	attention	attention	0	7			2	4	6820	133	0	122	0	0	2	212	36	340.7040000000000077307	4732	31	31	31	0.6113117243189625238	0.6999999999999999556	0	44.6363636363636331339	133	148	118	197	227	35	1	cloud	wind	Planet1A.png	Ship1A.png	Mushroom1A.png	fog0.png	0.0092999999999999992	0.6875999999999997669
6.6.1	mac	0	2023-12-04	10:30:08	1	1	1	experiment	1	clock	190	660	3347	420	1	36	36	36	6	attention	attention	attention	0	8			2	4	6820	133	0	122	0	0	2	212	87			31				0.6999999999999999556	0	44.6363636363636331339	133	148	118	197	227	36	1	cloud	wind	Planet1A.png	Ship1A.png	Mushroom1A.png	fog0.png	0.0092999999999999992	0.6875999999999997669
6.6.1	mac	0	2023-12-04	10:30:08	1	1	1	experiment	1	feedback	190	660	700	220	1	37	36	36	6	attention	attention	attention	0	8			2	4	6820	133	0	122	0	0	2	212	87	284.1840000000000259206	3947	122	122	122	0.4150443064083914058	0.6999999999999999556	0	44.6363636363636331339	133	148	118	197	227	36	1	cloud	wind	Planet1A.png	Ship1A.png	Mushroom1A.png	fog0.png	0.0365999999999999936	0.7241999999999997328
6.6.1	mac	0	2023-12-04	10:30:08	1	1	1	experiment	1	clock	330	540	4560	220	1	37	37	37	7	attention	attention	attention	0	9			2	4	6820	133	0	122	0	0	2	212	61			122				0.6999999999999999556	0	44.6363636363636331339	133	148	118	197	227	37	1	cloud	wind	Planet1A.png	Ship1A.png	Mushroom1A.png	fog0.png	0.0365999999999999936	0.7241999999999997328
6.6.1	mac	0	2023-12-04	10:30:08	1	1	1	experiment	1	feedback	330	540	700	410	1	38	37	37	7	attention	attention	attention	0	9			2	4	6820	133	0	122	0	0	2	212	61	277.9200000000000159162	3860	129	10	10	0.7578676102584851471	0.6999999999999999556	0	44.6363636363636331339	133	148	118	197	227	37	1	cloud	wind	Planet1A.png	Ship1A.png	Mushroom1A.png	fog0.png	0.0029999999999999996	0.7271999999999997355
6.6.1	mac	0	2023-12-04	10:30:08	1	1	1	experiment	1	clock	300	530	696	410	1	38	38	38	8	attention	attention	attention	0	10			2	4	6820	133	0	122	0	0	2	212	41			129				0.6999999999999999556	0	44.6363636363636331339	133	148	118	197	227	38	1	cloud	wind	Planet1A.png	Ship1A.png	Mushroom1A.png	fog0.png	0.0029999999999999996	0.7271999999999997355
6.6.1	mac	0	2023-12-04	10:30:08	1	1	1	experiment	1	feedback	300	530	700	510	1	39	38	38	8	attention	attention	attention	0	10			2	4	6820	133	0	122	0	0	2	212	41	287.7119999999999890861	3996	111	111	111	0.536138364238696763	0.6999999999999999556	0	44.6363636363636331339	133	148	118	197	227	38	1	cloud	wind	Planet1A.png	Ship1A.png	Mushroom1A.png	fog0.png	0.0332999999999999963	0.7604999999999997318
6.6.1	mac	0	2023-12-04	10:30:08	1	1	1	experiment	1	clock	410	690	42	510	1	39	39	39	9	attention	attention	attention	0	11			2	4	6820	133	0	122	0	0	2	212	47			111				0.6999999999999999556	0	44.6363636363636331339	133	148	118	197	227	39	1	cloud	wind	Planet1A.png	Ship1A.png	Mushroom1A.png	fog0.png	0.0332999999999999963	0.7604999999999997318
6.6.1	mac	0	2023-12-04	10:30:08	1	1	1	experiment	1	feedback	410	690	700	570	1	40	39	39	9	attention	attention	attention	0	11			2	4	6820	133	0	122	0	0	2	212	47	262.2239999999999895408	3642	153	10	10	0.9918723774589300879	0.6999999999999999556	0	44.6363636363636331339	133	148	118	197	227	39	1	cloud	wind	Planet1A.png	Ship1A.png	Mushroom1A.png	fog0.png	0.0029999999999999996	0.7634999999999997344
6.6.1	mac	0	2023-12-04	10:30:08	1	1	1	experiment	1	clock	200	700	3805	570	1	40	40	40	10	attention	attention	attention	0	12			2	4	6820	133	0	122	0	0	2	212	75			153				0.6999999999999999556	0	75.3181818181818130142	133	148	118	197	227	40	1	cloud	wind	Planet1A.png	Ship1A.png	Mushroom1A.png	fog0.png	0.0029999999999999996	0.7634999999999997344
6.6.1	mac	0	2023-12-04	10:30:08	1	1	1	experiment	1	feedback	200	700	700	400	1	41	40	40	10	attention	attention	attention	0	12			2	4	6820	133	0	122	0	0	2	212	75	273.9599999999999795364	3805	134	134	134	0.0825272612465841882	0.6999999999999999556	0	75.3181818181818130142	133	148	118	197	227	40	1	cloud	wind	Planet1A.png	Ship1A.png	Mushroom1A.png	fog0.png	0.0401999999999999996	0.8036999999999997479
6.6.1	mac	0	2023-12-04	10:30:08	1	1	1	experiment	1	clock	310	680	4236	400	1	41	41	41	1	no erasure	no erasure	attention	0	13			2	4	6820	133	0	122		0	2	212	69			134				0.6999999999999999556		90.6590909090909065071	133	148	118	197	227	41	1	cloud	wind	Planet1A.png	Ship1A.png	Mushroom1A.png	blank.png	0.0401999999999999996	0.8036999999999997479
6.6.1	mac	0	2023-12-04	10:30:08	1	1	1	experiment	1	feedback	310	680	700	590	1	42	41	41	1	no erasure	no erasure	attention	0	13			2	4	6820	133	0	122		0	2	212	69	283.3919999999999959073	3936	118	10	10	0.932645857085624197	0.6999999999999999556		90.6590909090909065071	133	148	118	197	227	41	1	cloud	wind	Planet1A.png	Ship1A.png	Mushroom1A.png	blank.png	0.0029999999999999996	0.8066999999999997506
6.6.1	mac	0	2023-12-04	10:30:08	1	1	1	experiment	1	clock	140	570	1931	590	1	42	42	42	2	no erasure	no erasure	no erasure	0	14			2	4	6820	133	0	122		0	2	212	15			118				0.6999999999999999556		93.8295454545454532536	133	148	118	197	227	42	1	cloud	wind	Planet1A.png	Ship1A.png	Mushroom1A.png	blank.png	0.0029999999999999996	0.8066999999999997506
6.6.1	mac	0	2023-12-04	10:30:08	1	1	1	experiment	1	feedback	140	570	700	280	1	43	42	42	2	no erasure	no erasure	no erasure	0	14			2	4	6820	133	0	122		0	2	212	15	283.0319999999999822649	3931	109	10	10	0.9060720703345891414	0.6999999999999999556		93.8295454545454532536	133	148	118	197	227	42	1	cloud	wind	Planet1A.png	Ship1A.png	Mushroom1A.png	blank.png	0.0029999999999999996	0.8096999999999997533
6.6.1	mac	0	2023-12-04	10:30:08	1	1	1	experiment	1	clock	200	680	3607	280	1	43	43	43	3	no erasure	no erasure	no erasure	0	15			2	4	6820	133	0	122		0	2	212	78			109				0.6999999999999999556		91.9147727272727195214	133	148	118	197	227	43	1	cloud	wind	Planet1A.png	Ship1A.png	Mushroom1A.png	blank.png	0.0029999999999999996	0.8096999999999997533
6.6.1	mac	0	2023-12-04	10:30:08	1	1	1	experiment	1	feedback	200	680	700	210	1	44	43	43	3	no erasure	no erasure	no erasure	0	15			2	4	6820	133	0	122		0	2	212	78	270.5040000000000190994	3757	115	115	115	0.0237177042345790429	0.6999999999999999556		91.9147727272727195214	133	148	118	197	227	43	1	cloud	wind	Planet1A.png	Ship1A.png	Mushroom1A.png	blank.png	0.0344999999999999959	0.8441999999999997284
6.6.1	mac	0	2023-12-04	10:30:08	1	1	1	experiment	1	clock	190	540	1712	210	1	44	44	44	4	no erasure	no erasure	no erasure	0	16			2	4	6820	133	0	122		0	2	212	17			115				0.6999999999999999556		86.4573863636363597607	133	148	118	197	227	44	1	cloud	wind	Planet1A.png	Ship1A.png	Mushroom1A.png	blank.png	0.0344999999999999959	0.8441999999999997284
6.6.1	mac	0	2023-12-04	10:30:08	1	1	1	experiment	1	feedback	190	540	700	590	1	45	44	44	4	no erasure	no erasure	no erasure	0	16			2	4	6820	133	0	122		0	2	212	17	274.4639999999999986358	3812	100	100	100	0.5422424540254852099	0.6999999999999999556		86.4573863636363597607	133	148	118	197	227	44	1	cloud	wind	Planet1A.png	Ship1A.png	Mushroom1A.png	blank.png	0.0299999999999999989	0.874199999999999755
6.6.1	mac	0	2023-12-04	10:30:08	1	1	1	experiment	1	clock	230	530	469	590	1	45	45	45	5	no erasure	no erasure	no erasure	0				2	4	6820	133	0	122		0	2	212	44			100				0.6999999999999999556		86.4573863636363597607	133	148	118	197	227	45	1	cloud	wind	Planet1A.png	Ship1A.png	Mushroom1A.png	blank.png	0.0299999999999999989	0.874199999999999755
6.6.1	mac	0	2023-12-04	10:30:08	1	1	1	experiment	1	feedback	230	530	700	450	1	46	45	45	5	no erasure	no erasure	no erasure	0				2	4	6820	133	0	122		0	2	212	44	282.1680000000000063665	3919	79	79	79	0.2787996470646000313	0.6999999999999999556		86.4573863636363597607	133	148	118	197	227	45	1	cloud	wind	Planet1A.png	Ship1A.png	Mushroom1A.png	blank.png	0.0236999999999999988	0.8978999999999996984
6.6.1	mac	0	2023-12-04	10:30:08	1	1	1	experiment	1	clock	240	600	317	450	1	46	46	46	6	no erasure	no erasure	no erasure	0				2	4	6820	133	0	122		0	2	212	49			79				0.6999999999999999556		86.4573863636363597607	133	148	118	197	227	46	1	cloud	wind	Planet1A.png	Ship1A.png	Mushroom1A.png	blank.png	0.0236999999999999988	0.8978999999999996984
6.6.1	mac	0	2023-12-04	10:30:08	1	1	1	experiment	1	feedback	240	600	700	560	1	47	46	46	6	no erasure	no erasure	no erasure	0				2	4	6820	133	0	122		0	2	212	49	289.2239999999999895408	4017	62	62	62	0.0111859117194977389	0.6999999999999999556		86.4573863636363597607	133	148	118	197	227	46	1	cloud	wind	Planet1A.png	Ship1A.png	Mushroom1A.png	blank.png	0.0185999999999999985	0.9164999999999996483
6.6.1	mac	0	2023-12-04	10:30:08	1	1	1	experiment	1	clock	320	700	913	560	1	47	47	47	7	no erasure	no erasure	no erasure	0				2	4	6820	133	0	122		0	2	212	30			62				0.6999999999999999556		86.4573863636363597607	133	148	118	197	227	47	1	cloud	wind	Planet1A.png	Ship1A.png	Mushroom1A.png	blank.png	0.0185999999999999985	0.9164999999999996483
6.6.1	mac	0	2023-12-04	10:30:08	1	1	1	experiment	1	feedback	320	700	700	380	1	48	47	47	7	no erasure	no erasure	no erasure	0				2	4	6820	133	0	122		0	2	212	30	263.7359999999999899956	3663	74	74	74	0.0265458102865484095	0.6999999999999999556		86.4573863636363597607	133	148	118	197	227	47	1	cloud	wind	Planet1A.png	Ship1A.png	Mushroom1A.png	blank.png	0.0221999999999999975	0.9386999999999996458
6.6.1	mac	0	2023-12-04	10:30:08	1	1	1	experiment	1	clock	260	500	222	380	1	48	48	48	8	no erasure	no erasure	no erasure	0				2	4	6820	133	0	122		0	2	212	53			74				0.6999999999999999556		86.4573863636363597607	133	148	118	197	227	48	1	cloud	wind	Planet1A.png	Ship1A.png	Mushroom1A.png	blank.png	0.0221999999999999975	0.9386999999999996458
6.6.1	mac	0	2023-12-04	10:30:08	1	1	1	experiment	1	feedback	260	500	700	430	1	49	48	48	8	no erasure	no erasure	no erasure	0				2	4	6820	133	0	122		0	2	212	53	296.7839999999999918145	4122	39	39	39	0.6661610034448469664	0.6999999999999999556		86.4573863636363597607	133	148	118	197	227	48	1	cloud	wind	Planet1A.png	Ship1A.png	Mushroom1A.png	blank.png	0.0116999999999999986	0.9503999999999996895
6.6.1	mac	0	2023-12-04	10:30:08	1	1	1	experiment	1	clock	270	510	2934	430	1	49	49	49	9	no erasure	no erasure	no erasure	0				2	4	6820	133	0	122		0	2	212	90			39				0.6999999999999999556		86.4573863636363597607	133	148	118	197	227	49	1	cloud	wind	Planet1A.png	Ship1A.png	Mushroom1A.png	blank.png	0.0116999999999999986	0.9503999999999996895
6.6.1	mac	0	2023-12-04	10:30:08	1	1	1	experiment	1	feedback	270	510	700	420	1	50	49	49	9	no erasure	no erasure	no erasure	0				2	4	6820	133	0	122		0	2	212	90	265.2479999999999904503	3684	51	51	51	0.3873120314412079601	0.6999999999999999556		86.4573863636363597607	133	148	118	197	227	49	1	cloud	wind	Planet1A.png	Ship1A.png	Mushroom1A.png	blank.png	0.0152999999999999994	0.9656999999999996698
6.6.1	mac	0	2023-12-04	10:30:08	1	1	1	experiment	1	clock	210	660	4498	420	1	50	50	50	10	no erasure	no erasure	no erasure	0				2	4	6820	133	0	122		0	2	212	59			51				0.6999999999999999556		86.4573863636363597607	133	148	118	197	227	50	1	cloud	wind	Planet1A.png	Ship1A.png	Mushroom1A.png	blank.png	0.0152999999999999994	0.9656999999999996698
6.6.1	mac	0	2023-12-04	10:30:08	1	1	1	experiment	1	feedback	210	660	700	250	1	51	50	50	10	no erasure	no erasure	no erasure	0				2	4	6820	133	0	122		0	2	212	59	266.2559999999999718057	3698	38	38	38	0.58662631329768955	0.6999999999999999556		86.4573863636363597607	133	148	118	197	227	50	1	cloud	wind	Planet1A.png	Ship1A.png	Mushroom1A.png	blank.png	0.0113999999999999987	0.9770999999999996355
6.6.1	mac	0	2023-12-04	10:30:08	1	1	1	experiment	1	clock	490	620	1301	250	1	51	51	51	1	erasure	erasure	no erasure	1	1			2	5	6820	183	1	122	0	0	2	273	24			38				0.6999999999999999556	0	1	183	198	168	258	288	51	2	cloud	wind	Planet1A.png	Ship1A.png	Mushroom1A.png	wind0.png	0.0113999999999999987	0.9770999999999996355
6.6.1	mac	0	2023-12-04	10:30:08	1	1	1	experiment	1	feedback	490	620	700	270	1	52	51	51	1	erasure	erasure	no erasure	0	1			2	5	6820	183	1	122	1	0	2	273	24	270.0720000000000027285	3751	26	26	26	0.6090508144369932708	0.6999999999999999556	1	1	183	198	168	258	288	51	2	cloud	wind	Planet1A.png	Ship1A.png	Mushroom1A.png	wind0.png	0.0077999999999999996	0.9848999999999996646
6.6.1	mac	0	2023-12-04	10:30:08	1	1	1	experiment	1	clock	360	520	1491	270	1	52	52	52	2	erasure	erasure	erasure	0	2			2	5	6820	183	1	122	1	0	2	273	21			26				0.6999999999999999556	1	1	183	198	168	258	288	52	2	cloud	wind	Planet1A.png	Ship1A.png	Mushroom1A.png	wind0.png	0.0077999999999999996	0.9848999999999996646
6.6.1	mac	0	2023-12-04	10:30:08	1	1	1	experiment	1	feedback	360	520	700	220	1	53	52	52	2	erasure	erasure	erasure	0	2			2	5	6820	183	1	122	2	0	2	273	21	272.951999999999998181	3791	13	10	10	0.9351321726420736002	0.6999999999999999556	1	1	183	198	168	258	288	52	2	cloud	wind	Planet1A.png	Ship1A.png	Mushroom1A.png	wind0.png	0.0029999999999999996	0.9878999999999996673
6.6.1	mac	0	2023-12-04	10:30:08	1	1	1	experiment	1	clock	390	630	1875	220	1	53	53	53	3	erasure	no erasure	erasure	0	3			2	5	6820	183	0	122		1	1	273	20			13				0.6999999999999999556		1	183	198	168	258	288	53	2	cloud	wind	Planet1A.png	Ship1A.png	Mushroom1A.png	blank.png	0.0029999999999999996	0.9878999999999996673
6.6.1	mac	0	2023-12-04	10:30:08	1	1	1	experiment	1	feedback	390	630	700	240	1	54	53	53	3	erasure	no erasure	erasure	0	3			2	5	6820	183	0	122		1	1	273	20	297	4125	26	26	26	0.2844057596019482492	0.6999999999999999556		1	183	198	168	258	288	53	2	cloud	wind	Planet1A.png	Ship1A.png	Mushroom1A.png	blank.png	0.0077999999999999996	0.9956999999999996964
6.6.1	mac	0	2023-12-04	10:30:08	1	1	1	experiment	1	clock	250	610	2129	240	1	54	54	54	4	erasure	no erasure	erasure	0	4			2	5	6820	183	0	122		1	0	273	13			26				0.6999999999999999556		1	183	198	168	258	288	54	2	cloud	wind	Planet1A.png	Ship1A.png	Mushroom1A.png	blank.png	0.0077999999999999996	0.9956999999999996964
6.6.1	mac	0	2023-12-04	10:30:08	1	1	1	experiment	1	feedback	250	610	700	410	1	55	54	54	4	erasure	no erasure	erasure	0	4			2	5	6820	183	0	122		1	0	273	13	290.0880000000000222826	4029	32	32	32	0.6515417223916253331	0.6999999999999999556		1	183	198	168	258	288	54	2	cloud	wind	Planet1A.png	Ship1A.png	Mushroom1A.png	blank.png	0.0095999999999999992	1.0052999999999996383
6.6.1	mac	0	2023-12-04	10:30:08	1	1	1	experiment	1	clock	110	640	2445	410	1	55	55	55	5	erasure	erasure	erasure	1	1			2	6	6820	280	1	122	0	0	2	10	4			32				0.6999999999999999556	0	65	280	295	265	355	25	55	2	cloud	wind	Planet1A.png	Ship1A.png	Mushroom1A.png	wind0.png	0.0095999999999999992	1.0052999999999996383
6.6.1	mac	0	2023-12-04	10:30:08	1	1	1	experiment	1	feedback	110	640	700	530	1	56	55	55	5	erasure	erasure	erasure	0	1			2	6	6820	280	1	122	0	0	2	10	4	280.4399999999999977263	3895	65	65	65	0.267034700668192182	0.6999999999999999556	0	65	280	295	265	355	25	55	2	cloud	wind	Planet1A.png	Ship1A.png	Mushroom1A.png	wind0.png	0.0195	1.0247999999999997112
6.6.1	mac	0	2023-12-04	10:30:08	1	1	1	experiment	1	clock	150	670	436	530	1	56	56	56	6	erasure	erasure	erasure	0	2			2	6	6820	280	1	122	0	0	2	10	62			65				0.6999999999999999556	0	65	280	295	265	355	25	56	2	cloud	wind	Planet1A.png	Ship1A.png	Mushroom1A.png	wind0.png	0.0195	1.0247999999999997112
6.6.1	mac	0	2023-12-04	10:30:08	1	1	1	experiment	1	feedback	150	670	700	490	1	57	56	56	6	erasure	erasure	erasure	0	2			2	6	6820	280	1	122	0	0	2	10	62	344.5919999999999845386	4786	68	10	10	0.740770969479524255	0.6999999999999999556	0	65	280	295	265	355	25	56	2	cloud	wind	Planet1A.png	Ship1A.png	Mushroom1A.png	wind0.png	0.0029999999999999996	1.0277999999999996028
6.6.1	mac	0	2023-12-04	10:30:08	1	1	1	experiment	1	clock	410	650	4379	490	1	57	57	57	7	erasure	erasure	erasure	0	3			2	6	6820	280	1	122	0	0	2	10	55			68				0.6999999999999999556	0	92.4285714285714163907	280	295	265	355	25	57	2	cloud	wind	Planet1A.png	Ship1A.png	Mushroom1A.png	wind0.png	0.0029999999999999996	1.0277999999999996028
6.6.1	mac	0	2023-12-04	10:30:08	1	1	1	experiment	1	feedback	410	650	700	340	1	58	57	57	7	erasure	erasure	erasure	0	3			2	6	6820	280	1	122	0	0	2	10	55	243.2880000000000109139	3379	25	25	25	0.2389966867023605723	0.6999999999999999556	0	92.4285714285714163907	280	295	265	355	25	57	2	cloud	wind	Planet1A.png	Ship1A.png	Mushroom1A.png	wind0.png	0.0074999999999999997	1.035299999999999665
6.6.1	mac	0	2023-12-04	10:30:08	1	1	1	experiment	1	clock	430	590	2893	340	1	58	58	58	8	erasure	erasure	erasure	0	4			2	6	6820	280	1	122	0	0	2	10	96			25				0.6999999999999999556	0	106.1428571428571387969	280	295	265	355	25	58	2	cloud	wind	Planet1A.png	Ship1A.png	Mushroom1A.png	wind0.png	0.0074999999999999997	1.035299999999999665
6.6.1	mac	0	2023-12-04	10:30:08	1	1	1	experiment	1	feedback	430	590	700	310	1	59	58	58	8	erasure	erasure	erasure	0	4			2	6	6820	280	1	122	0	0	2	10	96	283.8960000000000150067	3943	104.482158730158730009	10	10	0.8710249983405287111	0.6999999999999999556	0	106.1428571428571387969	280	295	265	355	25	58	2	cloud	wind	Planet1A.png	Ship1A.png	Mushroom1A.png	wind0.png	0.0029999999999999996	1.0382999999999995566
6.6.1	mac	0	2023-12-04	10:30:08	1	1	1	experiment	1	clock	330	570	2599	310	1	59	59	59	9	erasure	erasure	erasure	0	5			2	6	6820	280	1	122	0	0	2	10	6			104.482158730158730009				0.6999999999999999556	0	119.8571428571428469922	280	295	265	355	25	59	2	cloud	wind	Planet1A.png	Ship1A.png	Mushroom1A.png	wind0.png	0.0029999999999999996	1.0382999999999995566
6.6.1	mac	0	2023-12-04	10:30:08	1	1	1	experiment	1	feedback	330	570	700	460	1	60	59	59	9	erasure	erasure	erasure	0	5			2	6	6820	280	1	122	0	0	2	10	6	298.7280000000000086402	4149	81	81	81	0.1516027141249745025	0.6999999999999999556	0	119.8571428571428469922	280	295	265	355	25	59	2	cloud	wind	Planet1A.png	Ship1A.png	Mushroom1A.png	wind0.png	0.0242999999999999987	1.0625999999999995449
6.6.1	mac	0	2023-12-04	10:30:08	1	1	1	experiment	1	clock	450	560	4131	460	1	60	60	60	10	erasure	erasure	erasure	0	6			2	6	6820	280	1	122	0	0	2	10	82			81				0.6999999999999999556	0	133.5714285714285551876	280	295	265	355	25	60	2	cloud	wind	Planet1A.png	Ship1A.png	Mushroom1A.png	wind0.png	0.0242999999999999987	1.0625999999999995449
6.6.1	mac	0	2023-12-04	10:30:08	1	1	1	experiment	1	feedback	450	560	700	570	1	61	60	60	10	erasure	erasure	erasure	0	6			2	6	6820	280	1	122	0	0	2	10	82	322.6320000000000050022	4481	107	10	10	0.7877595682599953797	0.6999999999999999556	0	133.5714285714285551876	280	295	265	355	25	60	2	cloud	wind	Planet1A.png	Ship1A.png	Mushroom1A.png	wind0.png	0.0029999999999999996	1.0655999999999994365
6.6.1	mac	0	2023-12-04	10:30:08	1	1	1	experiment	1	clock	340	690	4379	570	1	61	61	61	1	no erasure	no erasure	erasure	0	7			2	6	6820	280	0	122		0	2	10	71			107				0.6999999999999999556		147.2857142857142775938	280	295	265	355	25	61	2	cloud	wind	Planet1A.png	Ship1A.png	Mushroom1A.png	blank.png	0.0029999999999999996	1.0655999999999994365
6.6.1	mac	0	2023-12-04	10:30:08	1	1	1	experiment	1	feedback	340	690	700	550	1	62	61	61	1	no erasure	no erasure	erasure	0	7			2	6	6820	280	0	122		0	2	10	71	300.8879999999999768079	4179	100	100	100	0.1243955935641181676	0.6999999999999999556		147.2857142857142775938	280	295	265	355	25	61	2	cloud	wind	Planet1A.png	Ship1A.png	Mushroom1A.png	blank.png	0.0299999999999999989	1.0955999999999994632
6.6.1	mac	0	2023-12-04	10:30:08	1	1	1	experiment	1	clock	480	580	1034	550	1	62	62	62	2	no erasure	no erasure	no erasure	0	8			2	6	6820	280	0	122		0	2	10	35			100				0.6999999999999999556		161	280	295	265	355	25	62	2	cloud	wind	Planet1A.png	Ship1A.png	Mushroom1A.png	blank.png	0.0299999999999999989	1.0955999999999994632
6.6.1	mac	0	2023-12-04	10:30:08	1	1	1	experiment	1	feedback	480	580	700	440	1	63	62	62	2	no erasure	no erasure	no erasure	0	8			2	6	6820	280	0	122		0	2	10	35	290.4479999999999790816	4034	134.5555555555555429237	135	134.5555555555555429237	0.272476396586856906	0.6999999999999999556		161	280	295	265	355	25	62	2	cloud	wind	Planet1A.png	Ship1A.png	Mushroom1A.png	blank.png	0.0404999999999999943	1.1360999999999994436
6.6.1	mac	0	2023-12-04	10:30:08	1	1	1	experiment	1	clock	420	550	4638	440	1	63	63	63	3	no erasure	no erasure	no erasure	0	9			2	6	6820	280	0	122		0	2	10	65			134.5555555555555429237				0.6999999999999999556		174.7142857142856939845	280	295	265	355	25	63	2	cloud	wind	Planet1A.png	Ship1A.png	Mushroom1A.png	blank.png	0.0404999999999999943	1.1360999999999994436
6.6.1	mac	0	2023-12-04	10:30:08	1	1	1	experiment	1	feedback	420	550	700	480	1	64	63	63	3	no erasure	no erasure	no erasure	0	9			2	6	6820	280	0	122		0	2	10	65	297.9359999999999786269	4138	116	10	10	0.9358347621596965205	0.6999999999999999556		174.7142857142856939845	280	295	265	355	25	63	2	cloud	wind	Planet1A.png	Ship1A.png	Mushroom1A.png	blank.png	0.0029999999999999996	1.1390999999999993353
6.6.1	mac	0	2023-12-04	10:30:08	1	1	1	experiment	1	clock	470	560	2015	480	1	64	64	64	4	no erasure	no erasure	no erasure	0	10			2	6	6820	280	0	122		0	2	10	16			116				0.6999999999999999556		188.4285714285714163907	280	295	265	355	25	64	2	cloud	wind	Planet1A.png	Ship1A.png	Mushroom1A.png	blank.png	0.0029999999999999996	1.1390999999999993353
6.6.1	mac	0	2023-12-04	10:30:08	1	1	1	experiment	1	feedback	470	560	700	540	1	65	64	64	4	no erasure	no erasure	no erasure	0	10			2	6	6820	280	0	122		0	2	10	16	292.6800000000000068212	4065	135.7481693121692956083	136	135.7481693121692956083	0.1405785398419430732	0.6999999999999999556		188.4285714285714163907	280	295	265	355	25	64	2	cloud	wind	Planet1A.png	Ship1A.png	Mushroom1A.png	blank.png	0.040799999999999996	1.1798999999999992827
6.6.1	mac	0	2023-12-04	10:30:08	1	1	1	experiment	1	clock	290	690	4280	540	1	65	65	65	5	no erasure	no erasure	no erasure	0	11			2	6	6820	280	0	122		0	2	10	72			135.7481693121692956083				0.6999999999999999556		202.1428571428571387969	280	295	265	355	25	65	2	cloud	wind	Planet1A.png	Ship1A.png	Mushroom1A.png	blank.png	0.040799999999999996	1.1798999999999992827
6.6.1	mac	0	2023-12-04	10:30:08	1	1	1	experiment	1	feedback	290	690	700	350	1	66	65	65	5	no erasure	no erasure	no erasure	0	11			2	6	6820	280	0	122		0	2	10	72	297.3600000000000136424	4130	134	10	10	0.8991287213049663496	0.6999999999999999556		202.1428571428571387969	280	295	265	355	25	65	2	cloud	wind	Planet1A.png	Ship1A.png	Mushroom1A.png	blank.png	0.0029999999999999996	1.1828999999999991743
6.6.1	mac	0	2023-12-04	10:30:08	1	1	1	experiment	1	clock	400	630	404	350	1	66	66	66	6	no erasure	no erasure	no erasure	0	12			2	6	6820	280	0	122		0	2	10	50			134				0.6999999999999999556		147.5714285714285551876	280	295	265	355	25	66	2	cloud	wind	Planet1A.png	Ship1A.png	Mushroom1A.png	blank.png	0.0029999999999999996	1.1828999999999991743
6.6.1	mac	0	2023-12-04	10:30:08	1	1	1	experiment	1	feedback	400	630	700	600	1	67	66	66	6	no erasure	no erasure	no erasure	0	12			2	6	6820	280	0	122		0	2	10	50	299.0880000000000222826	4154	146	10	10	0.995831337057946131	0.6999999999999999556		147.5714285714285551876	280	295	265	355	25	66	2	cloud	wind	Planet1A.png	Ship1A.png	Mushroom1A.png	blank.png	0.0029999999999999996	1.185899999999999066
6.6.1	mac	0	2023-12-04	10:30:08	1	1	1	experiment	1	clock	130	670	1249	600	1	67	67	67	7	no erasure	no erasure	no erasure	0	13			2	6	6820	280	0	122		0	2	10	33			146				0.6999999999999999556		122.2857142857142775938	280	295	265	355	25	67	2	cloud	wind	Planet1A.png	Ship1A.png	Mushroom1A.png	blank.png	0.0029999999999999996	1.185899999999999066
6.6.1	mac	0	2023-12-04	10:30:08	1	1	1	experiment	1	feedback	130	670	700	200	1	68	67	67	7	no erasure	no erasure	no erasure	0	13			2	6	6820	280	0	122		0	2	10	33	298.7280000000000086402	4149	154	150	154	0.6887818208636673489	0.6999999999999999556		122.2857142857142775938	280	295	265	355	25	67	2	cloud	wind	Planet1A.png	Ship1A.png	Mushroom1A.png	blank.png	0.0449999999999999983	1.2308999999999989949
6.6.1	mac	0	2023-12-04	10:30:08	1	1	1	experiment	1	clock	160	680	885	200	1	68	68	68	8	no erasure	no erasure	no erasure	0	14			2	6	6820	280	0	122		0	2	10	39			154				0.6999999999999999556		110.6428571428571387969	280	295	265	355	25	68	2	cloud	wind	Planet1A.png	Ship1A.png	Mushroom1A.png	blank.png	0.0449999999999999983	1.2308999999999989949
6.6.1	mac	0	2023-12-04	10:30:08	1	1	1	experiment	1	feedback	160	680	700	400	1	69	68	68	8	no erasure	no erasure	no erasure	0	14			2	6	6820	280	0	122		0	2	10	39	294.1200000000000045475	4085	145.9995978835978860388	10	10	0.7565405070214858974	0.6999999999999999556		110.6428571428571387969	280	295	265	355	25	68	2	cloud	wind	Planet1A.png	Ship1A.png	Mushroom1A.png	blank.png	0.0029999999999999996	1.2338999999999988866
6.6.1	mac	0	2023-12-04	10:30:08	1	1	1	experiment	1	clock	310	620	2403	400	1	69	69	69	9	no erasure	no erasure	no erasure	0	15			2	6	6820	280	0	122		0	2	10	10			145.9995978835978860388				0.6999999999999999556		103.8214285714285693984	280	295	265	355	25	69	2	cloud	wind	Planet1A.png	Ship1A.png	Mushroom1A.png	blank.png	0.0029999999999999996	1.2338999999999988866
6.6.1	mac	0	2023-12-04	10:30:08	1	1	1	experiment	1	feedback	310	620	700	230	1	70	69	69	9	no erasure	no erasure	no erasure	0	15			2	6	6820	280	0	122		0	2	10	10	299.0160000000000195541	4153	154	150	154	0.5303328159568675426	0.6999999999999999556		103.8214285714285693984	280	295	265	355	25	69	2	cloud	wind	Planet1A.png	Ship1A.png	Mushroom1A.png	blank.png	0.0449999999999999983	1.2788999999999988155
6.6.1	mac	0	2023-12-04	10:30:08	1	1	1	experiment	1	clock	440	590	1646	230	1	70	70	70	10	no erasure	no erasure	no erasure	0	16			2	6	6820	280	0	122		0	2	10	25			154				0.6999999999999999556		100.4107142857142775938	280	295	265	355	25	70	2	cloud	wind	Planet1A.png	Ship1A.png	Mushroom1A.png	blank.png	0.0449999999999999983	1.2788999999999988155
6.6.1	mac	0	2023-12-04	10:30:08	1	1	1	experiment	1	feedback	440	590	700	500	1	71	70	70	10	no erasure	no erasure	no erasure	0	16			2	6	6820	280	0	122		0	2	10	25	298.5120000000000004547	4146	154	150	154	0.3007036862663700627	0.6999999999999999556		100.4107142857142775938	280	295	265	355	25	70	2	cloud	wind	Planet1A.png	Ship1A.png	Mushroom1A.png	blank.png	0.0449999999999999983	1.3238999999999987445
6.6.1	mac	0	2023-12-04	10:30:08	1	1	1	experiment	1	clock	350	650	4303	500	1	71	71	71	1	attention	attention	no erasure	0				3	6	6820	280	0	173	0	0	2	263	72			154				0.6999999999999999556	0	100.4107142857142775938	280	295	265	248	278	71	2	cloud	wind	Planet1A.png	Ship1A.png	Mushroom1A.png	fog0.png	0.0449999999999999983	1.3238999999999987445
6.6.1	mac	0	2023-12-04	10:30:08	1	1	1	experiment	1	feedback	350	650	700	510	1	72	71	71	1	attention	attention	no erasure	0				3	6	6820	280	0	173	0	0	2	263	72	299.0160000000000195541	4153	154	150	154	0.0372106044174196696	0.6999999999999999556	0	100.4107142857142775938	280	295	265	248	278	71	2	cloud	wind	Planet1A.png	Ship1A.png	Mushroom1A.png	fog0.png	0.0449999999999999983	1.3688999999999986734
6.6.1	mac	0	2023-12-04	10:30:08	1	1	1	experiment	1	clock	460	640	537	510	1	72	72	72	2	attention	attention	attention	0				3	6	6820	280	0	173	0	0	2	263	47			154				0.6999999999999999556	0	100.4107142857142775938	280	295	265	248	278	72	2	cloud	wind	Planet1A.png	Ship1A.png	Mushroom1A.png	fog0.png	0.0449999999999999983	1.3688999999999986734
6.6.1	mac	0	2023-12-04	10:30:08	1	1	1	experiment	1	feedback	460	640	700	390	1	73	72	72	2	attention	attention	attention	0				3	6	6820	280	0	173	0	0	2	263	47	297.8639999999999758984	4137	152	150	152	0.6658969455552047334	0.6999999999999999556	0	100.4107142857142775938	280	295	265	248	278	72	2	cloud	wind	Planet1A.png	Ship1A.png	Mushroom1A.png	fog0.png	0.0449999999999999983	1.4138999999999986024
6.6.1	mac	0	2023-12-04	10:30:08	1	1	1	experiment	1	clock	300	570	4898	390	1	73	73	73	3	attention	attention	attention	0				3	6	6820	280	0	173	0	0	2	263	63			152				0.6999999999999999556	0	100.4107142857142775938	280	295	265	248	278	73	2	cloud	wind	Planet1A.png	Ship1A.png	Mushroom1A.png	fog0.png	0.0449999999999999983	1.4138999999999986024
6.6.1	mac	0	2023-12-04	10:30:08	1	1	1	experiment	1	feedback	300	570	700	360	1	74	73	73	3	attention	attention	attention	0				3	6	6820	280	0	173	0	0	2	263	63	309.4560000000000172804	4298	168	150	168	0.0173490748315465355	0.6999999999999999556	0	100.4107142857142775938	280	295	265	248	278	73	2	cloud	wind	Planet1A.png	Ship1A.png	Mushroom1A.png	fog0.png	0.0449999999999999983	1.4588999999999985313
6.6.1	mac	0	2023-12-04	10:30:08	1	1	1	experiment	1	clock	380	700	2634	360	1	74	74	74	4	attention	attention	attention	0				3	6	6820	280	0	173	0	0	2	263	8			168				0.6999999999999999556	0	100.4107142857142775938	280	295	265	248	278	74	2	cloud	wind	Planet1A.png	Ship1A.png	Mushroom1A.png	fog0.png	0.0449999999999999983	1.4588999999999985313
6.6.1	mac	0	2023-12-04	10:30:08	1	1	1	experiment	1	feedback	380	700	700	330	1	75	74	74	4	attention	attention	attention	0				3	6	6820	280	0	173	0	0	2	263	8	308.4479999999999790816	4284	164	150	164	0.1110728625466751024	0.6999999999999999556	0	100.4107142857142775938	280	295	265	248	278	74	2	cloud	wind	Planet1A.png	Ship1A.png	Mushroom1A.png	fog0.png	0.0449999999999999983	1.5038999999999984603
6.6.1	mac	0	2023-12-04	10:30:08	1	1	1	experiment	1	clock	220	600	1034	330	1	75	75	75	5	attention	attention	attention	0				3	6	6820	280	0	173	0	0	2	263	40			164				0.6999999999999999556	0	100.4107142857142775938	280	295	265	248	278	75	2	cloud	wind	Planet1A.png	Ship1A.png	Mushroom1A.png	fog0.png	0.0449999999999999983	1.5038999999999984603
6.6.1	mac	0	2023-12-04	10:30:08	1	1	1	experiment	1	feedback	220	600	700	320	1	76	75	75	5	attention	attention	attention	0				3	6	6820	280	0	173	0	0	2	263	40	308.4479999999999790816	4284	165	10	10	0.8858457097983559736	0.6999999999999999556	0	100.4107142857142775938	280	295	265	248	278	75	2	cloud	wind	Planet1A.png	Ship1A.png	Mushroom1A.png	fog0.png	0.0029999999999999996	1.5068999999999983519
6.6.1	mac	0	2023-12-04	10:30:08	1	1	1	experiment	1	clock	170	550	1478	320	1	76	76	76	6	attention	attention	attention	0				3	6	6820	280	0	173	0	0	2	263	32			165				0.6999999999999999556	0	100.4107142857142775938	280	295	265	248	278	76	2	cloud	wind	Planet1A.png	Ship1A.png	Mushroom1A.png	fog0.png	0.0029999999999999996	1.5068999999999983519
6.6.1	mac	0	2023-12-04	10:30:08	1	1	1	experiment	1	feedback	170	550	700	580	1	77	76	76	6	attention	attention	attention	0				3	6	6820	280	0	173	0	0	2	263	32	311.6159999999999854481	4328	161	10	10	0.8913197160911093819	0.6999999999999999556	0	100.4107142857142775938	280	295	265	248	278	76	2	cloud	wind	Planet1A.png	Ship1A.png	Mushroom1A.png	fog0.png	0.0029999999999999996	1.5098999999999982435
6.6.1	mac	0	2023-12-04	10:30:08	1	1	1	experiment	1	clock	280	580	3297	580	1	77	77	77	7	attention	attention	attention	0				3	6	6820	280	0	173	0	0	2	263	96			161				0.6999999999999999556	0	100.4107142857142775938	280	295	265	248	278	77	2	cloud	wind	Planet1A.png	Ship1A.png	Mushroom1A.png	fog0.png	0.0029999999999999996	1.5098999999999982435
6.6.1	mac	0	2023-12-04	10:30:08	1	1	1	experiment	1	feedback	280	580	700	470	1	78	77	77	7	attention	attention	attention	0				3	6	6820	280	0	173	0	0	2	263	96	312.9839999999999804459	4347	153	10	10	0.9378236811463310785	0.6999999999999999556	0	100.4107142857142775938	280	295	265	248	278	77	2	cloud	wind	Planet1A.png	Ship1A.png	Mushroom1A.png	fog0.png	0.0029999999999999996	1.5128999999999981352
6.6.1	mac	0	2023-12-04	10:30:08	1	1	1	experiment	1	clock	180	530	1604	470	1	78	78	78	8	attention	attention	attention	0				3	6	6820	280	0	173	0	0	2	263	24			153				0.6999999999999999556	0	100.4107142857142775938	280	295	265	248	278	78	2	cloud	wind	Planet1A.png	Ship1A.png	Mushroom1A.png	fog0.png	0.0029999999999999996	1.5128999999999981352
6.6.1	mac	0	2023-12-04	10:30:08	1	1	1	experiment	1	feedback	180	530	700	290	1	79	78	78	8	attention	attention	attention	0				3	6	6820	280	0	173	0	0	2	263	24	291.8879999999999768079	4054	120	120	120	0.0645557826069546314	0.6999999999999999556	0	100.4107142857142775938	280	295	265	248	278	78	2	cloud	wind	Planet1A.png	Ship1A.png	Mushroom1A.png	fog0.png	0.0359999999999999973	1.5488999999999981672
6.6.1	mac	0	2023-12-04	10:30:08	1	1	1	experiment	1	clock	370	660	3247	290	1	79	79	79	9	attention	attention	attention	0				3	6	6820	280	0	173	0	0	2	263	93			120				0.6999999999999999556	0	100.4107142857142775938	280	295	265	248	278	79	2	cloud	wind	Planet1A.png	Ship1A.png	Mushroom1A.png	fog0.png	0.0359999999999999973	1.5488999999999981672
6.6.1	mac	0	2023-12-04	10:30:08	1	1	1	experiment	1	feedback	370	660	700	370	1	80	79	79	9	attention	attention	attention	0				3	6	6820	280	0	173	0	0	2	263	93	298.5840000000000031832	4147	120	10	10	0.7989150073376751759	0.6999999999999999556	0	100.4107142857142775938	280	295	265	248	278	79	2	cloud	wind	Planet1A.png	Ship1A.png	Mushroom1A.png	fog0.png	0.0029999999999999996	1.5518999999999980588
6.6.1	mac	0	2023-12-04	10:30:08	1	1	1	experiment	1	clock	500	500	2374	370	1	80	80	80	10	attention	attention	attention	0				3	6	6820	280	0	173	0	0	2	263	8			120				0.6999999999999999556	0	100.4107142857142775938	280	295	265	248	278	80	2	cloud	wind	Planet1A.png	Ship1A.png	Mushroom1A.png	fog0.png	0.0029999999999999996	1.5518999999999980588
6.6.1	mac	0	2023-12-04	10:30:08	1	1	1	experiment	1	feedback	500	500	700	300	1	81	80	80	10	attention	attention	attention	0				3	6	6820	280	0	173	0	0	2	263	8	289.7280000000000086402	4024	101	101	101	0.0443356973222307146	0.6999999999999999556	0	100.4107142857142775938	280	295	265	248	278	80	2	cloud	wind	Planet1A.png	Ship1A.png	Mushroom1A.png	fog0.png	0.0302999999999999971	1.5821999999999980524
6.6.1	mac	0	2023-12-04	10:30:08	1	1	1	experiment	1	clock	100	520	1424	300	1	81	81	81	1	erasure	erasure	attention	1	1			3	8	6820	168	1	173	0	0	2	258	17			101				0.6999999999999999556	0	1	168	183	153	243	273	81	3	cloud	wind	Planet1A.png	Ship1A.png	Mushroom1A.png	wind0.png	0.0302999999999999971	1.5821999999999980524
6.6.1	mac	0	2023-12-04	10:30:08	1	1	1	experiment	1	feedback	100	520	700	520	1	82	81	81	1	erasure	erasure	attention	0	1			3	8	6820	168	1	173	1	0	2	258	17	253.7280000000000086402	3524	53	53	53	0.095571222737331693	0.6999999999999999556	1	1	168	183	153	243	273	81	3	cloud	wind	Planet1A.png	Ship1A.png	Mushroom1A.png	wind0.png	0.0158999999999999975	1.5980999999999980776
6.6.1	mac	0	2023-12-04	10:30:08	1	1	1	experiment	1	clock	120	540	2783	520	1	82	82	82	2	erasure	erasure	erasure	0	2			3	8	6820	168	1	173	1	0	2	258	99			53				0.6999999999999999556	1	1	168	183	153	243	273	82	3	cloud	wind	Planet1A.png	Ship1A.png	Mushroom1A.png	wind0.png	0.0158999999999999975	1.5980999999999980776
6.6.1	mac	0	2023-12-04	10:30:08	1	1	1	experiment	1	feedback	120	540	700	260	1	83	82	82	2	erasure	erasure	erasure	0	2			3	8	6820	168	1	173	1	0	2	258	99	286.7760000000000104592	3983	82	82	82	0.0335215027522112949	0.6999999999999999556	0	1	168	183	153	243	273	82	3	cloud	wind	Planet1A.png	Ship1A.png	Mushroom1A.png	wind0.png	0.0245999999999999969	1.6226999999999980329
6.6.1	mac	0	2023-12-04	10:30:08	1	1	1	experiment	1	clock	210	610	4179	260	1	83	83	83	3	erasure	erasure	erasure	0	3			3	8	6820	168	1	173	1	0	2	258	72			82				0.6999999999999999556	0	1	168	183	153	243	273	83	3	cloud	wind	Planet1A.png	Ship1A.png	Mushroom1A.png	wind0.png	0.0245999999999999969	1.6226999999999980329
6.6.1	mac	0	2023-12-04	10:30:08	1	1	1	experiment	1	feedback	210	610	700	510	1	84	83	83	3	erasure	erasure	erasure	0	3			3	8	6820	168	1	173	1	0	2	258	72	290.0880000000000222826	4029	77	77	77	0.3832981147298817892	0.6999999999999999556	0	1	168	183	153	243	273	83	3	cloud	wind	Planet1A.png	Ship1A.png	Mushroom1A.png	wind0.png	0.023099999999999999	1.6457999999999979313
6.6.1	mac	0	2023-12-04	10:30:08	1	1	1	experiment	1	clock	220	510	1440	510	1	84	84	84	4	erasure	erasure	erasure	0	4			3	8	6820	168	1	173	1	0	2	258	27			77				0.6999999999999999556	0	1	168	183	153	243	273	84	3	cloud	wind	Planet1A.png	Ship1A.png	Mushroom1A.png	wind0.png	0.023099999999999999	1.6457999999999979313
6.6.1	mac	0	2023-12-04	10:30:08	1	1	1	experiment	1	feedback	220	510	700	240	1	85	84	84	4	erasure	erasure	erasure	0	4			3	8	6820	168	1	173	1	0	2	258	27	290.8799999999999954525	4040	70	70	70	0.0171503915957059681	0.6999999999999999556	0	1	168	183	153	243	273	84	3	cloud	wind	Planet1A.png	Ship1A.png	Mushroom1A.png	wind0.png	0.0209999999999999978	1.6667999999999978389
6.6.1	mac	0	2023-12-04	10:30:08	1	1	1	experiment	1	clock	100	700	1692	240	1	85	85	85	5	erasure	erasure	erasure	0	5			3	8	6820	168	1	173	1	0	2	258	24			70				0.6999999999999999556	0	1	168	183	153	243	273	85	3	cloud	wind	Planet1A.png	Ship1A.png	Mushroom1A.png	wind0.png	0.0209999999999999978	1.6667999999999978389
6.6.1	mac	0	2023-12-04	10:30:08	1	1	1	experiment	1	feedback	100	700	700	290	1	86	85	85	5	erasure	erasure	erasure	0	5			3	8	6820	168	1	173	1	0	2	258	24	298.2239999999999895408	4142	67	67	67	0.4944108905024852119	0.6999999999999999556	0	1	168	183	153	243	273	85	3	cloud	wind	Planet1A.png	Ship1A.png	Mushroom1A.png	wind0.png	0.0200999999999999998	1.6868999999999978456
6.6.1	mac	0	2023-12-04	10:30:08	1	1	1	experiment	1	clock	200	670	4744	290	1	86	86	86	6	erasure	erasure	erasure	0	6			3	8	6820	168	1	173	1	0	2	258	63			67				0.6999999999999999556	0	1	168	183	153	243	273	86	3	cloud	wind	Planet1A.png	Ship1A.png	Mushroom1A.png	wind0.png	0.0200999999999999998	1.6868999999999978456
6.6.1	mac	0	2023-12-04	10:30:08	1	1	1	experiment	1	feedback	200	670	700	400	1	87	86	86	6	erasure	erasure	erasure	0	6			3	8	6820	168	1	173	1	0	2	258	63	298.3679999999999949978	4144	58	58	58	0.15441357976626921	0.6999999999999999556	0	1	168	183	153	243	273	86	3	cloud	wind	Planet1A.png	Ship1A.png	Mushroom1A.png	wind0.png	0.0173999999999999988	1.7042999999999979277
6.6.1	mac	0	2023-12-04	10:30:08	1	1	1	experiment	1	clock	420	580	3976	400	1	87	87	87	7	erasure	erasure	erasure	0	7			3	8	6820	168	1	173	1	0	2	258	81			58				0.6999999999999999556	0	1	168	183	153	243	273	87	3	cloud	wind	Planet1A.png	Ship1A.png	Mushroom1A.png	wind0.png	0.0173999999999999988	1.7042999999999979277
6.6.1	mac	0	2023-12-04	10:30:08	1	1	1	experiment	1	feedback	420	580	700	350	1	88	87	87	7	erasure	erasure	erasure	0	7			3	8	6820	168	1	173	1	0	2	258	81	307.8720000000000140972	4276	54	54	54	0.2330954648165720067	0.6999999999999999556	0	1	168	183	153	243	273	87	3	cloud	wind	Planet1A.png	Ship1A.png	Mushroom1A.png	wind0.png	0.0161999999999999991	1.7204999999999979199
6.6.1	mac	0	2023-12-04	10:30:08	1	1	1	experiment	1	clock	270	630	4532	350	1	88	88	88	8	erasure	erasure	erasure	0	8			3	8	6820	168	1	173	1	0	2	258	68			54				0.6999999999999999556	0	1	168	183	153	243	273	88	3	cloud	wind	Planet1A.png	Ship1A.png	Mushroom1A.png	wind0.png	0.0161999999999999991	1.7204999999999979199
6.6.1	mac	0	2023-12-04	10:30:08	1	1	1	experiment	1	feedback	270	630	700	280	1	89	88	88	8	erasure	erasure	erasure	0	8			3	8	6820	168	1	173	1	0	2	258	68	301.1039999999999849933	4182	43	43	43	0.6683016842390181456	0.6999999999999999556	0	1	168	183	153	243	273	88	3	cloud	wind	Planet1A.png	Ship1A.png	Mushroom1A.png	wind0.png	0.0128999999999999983	1.7333999999999978314
6.6.1	mac	0	2023-12-04	10:30:08	1	1	1	experiment	1	clock	430	520	4323	280	1	89	89	89	9	erasure	erasure	erasure	0	9			3	8	6820	168	1	173	1	0	2	258	72			43				0.6999999999999999556	0	1	168	183	153	243	273	89	3	cloud	wind	Planet1A.png	Ship1A.png	Mushroom1A.png	wind0.png	0.0128999999999999983	1.7333999999999978314
6.6.1	mac	0	2023-12-04	10:30:08	1	1	1	experiment	1	feedback	430	520	700	210	1	90	89	89	9	erasure	erasure	erasure	0	9			3	8	6820	168	1	173	1	0	2	258	72	300.4560000000000172804	4173	34	34	34	0.0567741177642657677	0.6999999999999999556	0	1	168	183	153	243	273	89	3	cloud	wind	Planet1A.png	Ship1A.png	Mushroom1A.png	wind0.png	0.010199999999999999	1.7435999999999978183
6.6.1	mac	0	2023-12-04	10:30:08	1	1	1	experiment	1	clock	110	680	643	210	1	90	90	90	10	erasure	erasure	erasure	0	10			3	8	6820	168	1	173	1	0	2	258	46			34				0.6999999999999999556	0	1	168	183	153	243	273	90	3	cloud	wind	Planet1A.png	Ship1A.png	Mushroom1A.png	wind0.png	0.010199999999999999	1.7435999999999978183
6.6.1	mac	0	2023-12-04	10:30:08	1	1	1	experiment	1	feedback	110	680	700	590	1	91	90	90	10	erasure	erasure	erasure	0	10			3	8	6820	168	1	173	1	0	2	258	46	301.8960000000000150067	4193	26	10	10	0.8144435439758104245	0.6999999999999999556	0	1	168	183	153	243	273	90	3	cloud	wind	Planet1A.png	Ship1A.png	Mushroom1A.png	wind0.png	0.0029999999999999996	1.7465999999999977099
6.6.1	mac	0	2023-12-04	10:30:08	1	1	1	experiment	1	clock	130	660	2930	590	1	91	91	91	1	attention	attention	erasure	0	11			4	8	6820	168	0	145	0	0	2	235	59			26				0.6999999999999999556	0	1	168	183	153	220	250	91	3	cloud	wind	Planet1A.png	Ship1A.png	Mushroom1A.png	fog0.png	0.0029999999999999996	1.7465999999999977099
6.6.1	mac	0	2023-12-04	10:30:08	1	1	1	experiment	1	feedback	130	660	700	490	1	92	91	91	1	attention	attention	erasure	0	11			4	8	6820	168	0	145	0	0	2	235	59	153.3600000000000136424	2130	19	19	19	0.1445279657245911453	0.6999999999999999556	0	1	168	183	153	220	250	91	3	cloud	wind	Planet1A.png	Ship1A.png	Mushroom1A.png	fog0.png	0.0056999999999999993	1.7522999999999977483
6.6.1	mac	0	2023-12-04	10:30:08	1	1	1	experiment	1	clock	480	590	845	490	1	92	92	92	2	attention	attention	attention	0	12			4	8	6820	168	0	145	0	0	2	235	22			19				0.6999999999999999556	0	15	168	183	153	220	250	92	3	cloud	wind	Planet1A.png	Ship1A.png	Mushroom1A.png	fog0.png	0.0056999999999999993	1.7522999999999977483
6.6.1	mac	0	2023-12-04	10:30:08	1	1	1	experiment	1	feedback	480	590	700	530	1	93	92	92	2	attention	attention	attention	0	12			4	8	6820	168	0	145	1	0	2	235	22	230.0399999999999920419	3195	10	10	10	0.7087181919973153388	0.6999999999999999556	1	15	168	183	153	220	250	92	3	cloud	wind	Planet1A.png	Ship1A.png	Mushroom1A.png	fog0.png	0.0029999999999999996	1.7552999999999976399
6.6.1	mac	0	2023-12-04	10:30:08	1	1	1	experiment	1	clock	370	550	105	530	1	93	93	93	3	attention	attention	attention	0	13			4	8	6820	168	0	145	0	0	2	235	41			10				0.6999999999999999556	0	27	168	183	153	220	250	93	3	cloud	wind	Planet1A.png	Ship1A.png	Mushroom1A.png	fog0.png	0.0029999999999999996	1.7552999999999976399
6.6.1	mac	0	2023-12-04	10:30:08	1	1	1	experiment	1	feedback	370	550	700	440	1	94	93	93	3	attention	attention	attention	0	13			4	8	6820	168	0	145	1	0	2	235	41	245.1599999999999965894	3405	9	10	10	0.9544252941744461038	0.6999999999999999556	1	27	168	183	153	220	250	93	3	cloud	wind	Planet1A.png	Ship1A.png	Mushroom1A.png	fog0.png	0.0029999999999999996	1.7582999999999975316
6.6.1	mac	0	2023-12-04	10:30:08	1	1	1	experiment	1	clock	500	600	2670	440	1	94	94	94	4	attention	attention	attention	0	14			4	8	6820	168	0	145	0	0	2	235	60			9				0.6999999999999999556	0	38.5	168	183	153	220	250	94	3	cloud	wind	Planet1A.png	Ship1A.png	Mushroom1A.png	fog0.png	0.0029999999999999996	1.7582999999999975316
6.6.1	mac	0	2023-12-04	10:30:08	1	1	1	experiment	1	feedback	500	600	700	540	1	95	94	94	4	attention	attention	attention	0	14			4	8	6820	168	0	145	0	0	2	235	60	138.2400000000000090949	1920	53	53	53	0.6416763776544659459	0.6999999999999999556	0	38.5	168	183	153	220	250	94	3	cloud	wind	Planet1A.png	Ship1A.png	Mushroom1A.png	fog0.png	0.0158999999999999975	1.7741999999999975568
6.6.1	mac	0	2023-12-04	10:30:08	1	1	1	experiment	1	clock	410	610	4035	540	1	95	95	95	5	attention	attention	attention	0	15			4	8	6820	168	0	145	0	0	2	235	32			53				0.6999999999999999556	0	49.25	168	183	153	220	250	95	3	cloud	wind	Planet1A.png	Ship1A.png	Mushroom1A.png	fog0.png	0.0158999999999999975	1.7741999999999975568
6.6.1	mac	0	2023-12-04	10:30:08	1	1	1	experiment	1	feedback	410	610	700	470	1	96	95	95	5	attention	attention	attention	0	15			4	8	6820	168	0	145	0	0	2	235	32	135.7199999999999988631	1885	64	10	10	0.7868542498412668396	0.6999999999999999556	0	49.25	168	183	153	220	250	95	3	cloud	wind	Planet1A.png	Ship1A.png	Mushroom1A.png	fog0.png	0.0029999999999999996	1.7771999999999974484
6.6.1	mac	0	2023-12-04	10:30:08	1	1	1	experiment	1	clock	330	540	1874	470	1	96	96	96	6	attention	attention	attention	0	16			4	8	6820	168	0	145	0	0	2	235	80			64				0.6999999999999999556	0	59.625	168	183	153	220	250	96	3	cloud	wind	Planet1A.png	Ship1A.png	Mushroom1A.png	fog0.png	0.0029999999999999996	1.7771999999999974484
6.6.1	mac	0	2023-12-04	10:30:08	1	1	1	experiment	1	feedback	330	540	700	310	1	97	96	96	6	attention	attention	attention	0	16			4	8	6820	168	0	145	0	0	2	235	80	152.9279999999999972715	2124	70	70	70	0.1404447525601006941	0.6999999999999999556	0	59.625	168	183	153	220	250	96	3	cloud	wind	Planet1A.png	Ship1A.png	Mushroom1A.png	fog0.png	0.0209999999999999978	1.7981999999999973561
6.6.1	mac	0	2023-12-04	10:30:08	1	1	1	experiment	1	clock	490	560	513	310	1	97	97	97	7	attention	attention	attention	0				4	8	6820	168	0	145	0	0	2	235	10			70				0.6999999999999999556	0	59.625	168	183	153	220	250	97	3	cloud	wind	Planet1A.png	Ship1A.png	Mushroom1A.png	fog0.png	0.0209999999999999978	1.7981999999999973561
6.6.1	mac	0	2023-12-04	10:30:08	1	1	1	experiment	1	feedback	490	560	700	390	1	98	97	97	7	attention	attention	attention	0				4	8	6820	168	0	145	0	0	2	235	10	162.9360000000000070486	2263	75	75	75	0.5671706061268156907	0.6999999999999999556	0	59.625	168	183	153	220	250	97	3	cloud	wind	Planet1A.png	Ship1A.png	Mushroom1A.png	fog0.png	0.0224999999999999992	1.8206999999999973205
6.6.1	mac	0	2023-12-04	10:30:08	1	1	1	experiment	1	clock	300	640	1702	390	1	98	98	98	8	attention	attention	attention	0				4	8	6820	168	0	145	0	0	2	235	91			75				0.6999999999999999556	0	59.625	168	183	153	220	250	98	3	cloud	wind	Planet1A.png	Ship1A.png	Mushroom1A.png	fog0.png	0.0224999999999999992	1.8206999999999973205
6.6.1	mac	0	2023-12-04	10:30:08	1	1	1	experiment	1	feedback	300	640	700	600	1	99	98	98	8	attention	attention	attention	0				4	8	6820	168	0	145	0	0	2	235	91	180.144000000000005457	2502	73	73	73	0.3984257137399226933	0.6999999999999999556	0	59.625	168	183	153	220	250	98	3	cloud	wind	Planet1A.png	Ship1A.png	Mushroom1A.png	fog0.png	0.0218999999999999993	1.8425999999999973511
6.6.1	mac	0	2023-12-04	10:30:08	1	1	1	experiment	1	clock	190	530	1014	600	1	99	99	99	9	attention	attention	attention	0				4	8	6820	168	0	145	0	0	2	235	93			73				0.6999999999999999556	0	59.625	168	183	153	220	250	99	3	cloud	wind	Planet1A.png	Ship1A.png	Mushroom1A.png	fog0.png	0.0218999999999999993	1.8425999999999973511
6.6.1	mac	0	2023-12-04	10:30:08	1	1	1	experiment	1	feedback	190	530	700	420	1	100	99	99	9	attention	attention	attention	0				4	8	6820	168	0	145	0	0	2	235	93	137.807999999999992724	1914	108	10	10	0.8475059524289113577	0.6999999999999999556	0	59.625	168	183	153	220	250	99	3	cloud	wind	Planet1A.png	Ship1A.png	Mushroom1A.png	fog0.png	0.0029999999999999996	1.8455999999999972427
6.6.1	mac	0	2023-12-04	10:30:08	1	1	1	experiment	1	clock	150	650	4219	420	1	100	100	100	10	attention	attention	attention	0				4	8	6820	168	0	145	0	0	2	235	45			108				0.6999999999999999556	0	59.625	168	183	153	220	250	100	3	cloud	wind	Planet1A.png	Ship1A.png	Mushroom1A.png	fog0.png	0.0029999999999999996	1.8455999999999972427
6.6.1	mac	0	2023-12-04	10:30:08	1	1	1	experiment	1	feedback	150	650	700	340	1	101	100	100	10	attention	attention	attention	0				4	8	6820	168	0	145	0	0	2	235	45	195.7680000000000006821	2719	73	73	73	0.4087305929066451515	0.6999999999999999556	0	59.625	168	183	153	220	250	100	3	cloud	wind	Planet1A.png	Ship1A.png	Mushroom1A.png	fog0.png	0.0218999999999999993	1.8674999999999972733
6.6.1	mac	0	2023-12-04	10:30:08	1	1	1	experiment	2	clock	240	570	1995	340	2	1	101	1	1	no erasure	no erasure	attention	0				4	8	6820	168	0	145		0	2	235	79			73				0.6999999999999999556		59.625	168	183	153	220	250	101	3	cloud	wind	Planet2A.png	Ship2A.png	Mushroom1A.png	blank.png	0.0218999999999999993	1.8674999999999972733
6.6.1	mac	0	2023-12-04	10:30:08	1	1	1	experiment	2	feedback	240	570	700	410	2	2	101	1	1	no erasure	no erasure	attention	0				4	8	6820	168	0	145		0	2	235	79	158.0399999999999920419	2195	118	118	118	0.4410267794600284397	0.6999999999999999556		59.625	168	183	153	220	250	101	3	cloud	wind	Planet2A.png	Ship2A.png	Mushroom2A.png	blank.png	0.035399999999999994	1.9028999999999973713
6.6.1	mac	0	2023-12-04	10:30:08	1	1	1	experiment	2	clock	460	500	2747	410	2	2	102	2	2	no erasure	no erasure	no erasure	0				4	8	6820	168	0	145		0	2	235	61			118				0.6999999999999999556		59.625	168	183	153	220	250	102	3	cloud	wind	Planet2A.png	Ship2A.png	Mushroom2A.png	blank.png	0.035399999999999994	1.9028999999999973713
6.6.1	mac	0	2023-12-04	10:30:08	1	1	1	experiment	2	feedback	460	500	700	480	2	3	102	2	2	no erasure	no erasure	no erasure	0				4	8	6820	168	0	145		0	2	235	61	147.3839999999999861302	2047	135	135	135	0.6927089317917611844	0.6999999999999999556		59.625	168	183	153	220	250	102	3	cloud	wind	Planet2A.png	Ship2A.png	Mushroom2A.png	blank.png	0.0404999999999999943	1.9433999999999973518
6.6.1	mac	0	2023-12-04	10:30:08	1	1	1	experiment	2	clock	250	620	4160	480	2	3	103	3	3	no erasure	no erasure	no erasure	0				4	8	6820	168	0	145		0	2	235	32			135				0.6999999999999999556		59.625	168	183	153	220	250	103	3	cloud	wind	Planet2A.png	Ship2A.png	Mushroom2A.png	blank.png	0.0404999999999999943	1.9433999999999973518
6.6.1	mac	0	2023-12-04	10:30:08	1	1	1	experiment	2	feedback	250	620	700	580	2	4	103	3	3	no erasure	no erasure	no erasure	0				4	8	6820	168	0	145		0	2	235	32	144.7199999999999988631	2010	146	146	146	0.0832054990071816186	0.6999999999999999556		59.625	168	183	153	220	250	103	3	cloud	wind	Planet2A.png	Ship2A.png	Mushroom2A.png	blank.png	0.0437999999999999987	1.9871999999999974129
6.6.1	mac	0	2023-12-04	10:30:08	1	1	1	experiment	2	clock	180	690	3309	580	2	4	104	4	4	no erasure	no erasure	no erasure	0				4	8	6820	168	0	145		0	2	235	49			146				0.6999999999999999556		59.625	168	183	153	220	250	104	3	cloud	wind	Planet2A.png	Ship2A.png	Mushroom2A.png	blank.png	0.0437999999999999987	1.9871999999999974129
6.6.1	mac	0	2023-12-04	10:30:08	1	1	1	experiment	2	feedback	180	690	700	270	2	5	104	4	4	no erasure	no erasure	no erasure	0				4	8	6820	168	0	145		0	2	235	49	144.6479999999999961346	2009	156	150	156	0.6141419281750316594	0.6999999999999999556		59.625	168	183	153	220	250	104	3	cloud	wind	Planet2A.png	Ship2A.png	Mushroom2A.png	blank.png	0.0449999999999999983	2.0321999999999973419
6.6.1	mac	0	2023-12-04	10:30:08	1	1	1	experiment	2	clock	120	510	2404	270	2	5	105	5	5	no erasure	no erasure	no erasure	0				4	8	6820	168	0	145		0	2	235	66			156				0.6999999999999999556		59.625	168	183	153	220	250	105	3	cloud	wind	Planet2A.png	Ship2A.png	Mushroom2A.png	blank.png	0.0449999999999999983	2.0321999999999973419
6.6.1	mac	0	2023-12-04	10:30:08	1	1	1	experiment	2	feedback	120	510	700	550	2	6	105	5	5	no erasure	no erasure	no erasure	0				4	8	6820	168	0	145		0	2	235	66	140.6879999999999881766	1954	169	150	169	0.1846309556124338391	0.6999999999999999556		59.625	168	183	153	220	250	105	3	cloud	wind	Planet2A.png	Ship2A.png	Mushroom2A.png	blank.png	0.0449999999999999983	2.0771999999999972708
6.6.1	mac	0	2023-12-04	10:30:08	1	1	1	experiment	2	clock	230	570	4157	550	2	6	106	6	6	no erasure	no erasure	no erasure	0				4	8	6820	168	0	145		0	2	235	31			169				0.6999999999999999556		59.625	168	183	153	220	250	106	3	cloud	wind	Planet2A.png	Ship2A.png	Mushroom2A.png	blank.png	0.0449999999999999983	2.0771999999999972708
6.6.1	mac	0	2023-12-04	10:30:08	1	1	1	experiment	2	feedback	230	570	700	460	2	7	106	6	6	no erasure	no erasure	no erasure	0				4	8	6820	168	0	145		0	2	235	31	140.903999999999996362	1957	179	10	10	0.7546240060484558088	0.6999999999999999556		59.625	168	183	153	220	250	106	3	cloud	wind	Planet2A.png	Ship2A.png	Mushroom2A.png	blank.png	0.0029999999999999996	2.0801999999999973845
6.6.1	mac	0	2023-12-04	10:30:08	1	1	1	experiment	2	clock	450	660	3830	460	2	7	107	7	7	no erasure	no erasure	no erasure	0				4	8	6820	168	0	145		0	2	235	35			179				0.6999999999999999556		59.625	168	183	153	220	250	107	3	cloud	wind	Planet2A.png	Ship2A.png	Mushroom2A.png	blank.png	0.0029999999999999996	2.0801999999999973845
6.6.1	mac	0	2023-12-04	10:30:08	1	1	1	experiment	2	feedback	450	660	700	360	2	8	107	7	7	no erasure	no erasure	no erasure	0				4	8	6820	168	0	145		0	2	235	35	131.7599999999999909051	1830	196	10	10	0.7005173397950169578	0.6999999999999999556		59.625	168	183	153	220	250	107	3	cloud	wind	Planet2A.png	Ship2A.png	Mushroom2A.png	blank.png	0.0029999999999999996	2.0831999999999974982
6.6.1	mac	0	2023-12-04	10:30:08	1	1	1	experiment	2	clock	140	600	191	360	2	8	108	8	8	no erasure	no erasure	no erasure	0				4	8	6820	168	0	145		0	2	235	6			196				0.6999999999999999556		59.625	168	183	153	220	250	108	3	cloud	wind	Planet2A.png	Ship2A.png	Mushroom2A.png	blank.png	0.0029999999999999996	2.0831999999999974982
6.6.1	mac	0	2023-12-04	10:30:08	1	1	1	experiment	2	feedback	140	600	700	560	2	9	108	8	8	no erasure	no erasure	no erasure	0				4	8	6820	168	0	145		0	2	235	6	125.3520000000000038654	1741	199	150	199	0.3808646833945216192	0.6999999999999999556		59.625	168	183	153	220	250	108	3	cloud	wind	Planet2A.png	Ship2A.png	Mushroom2A.png	blank.png	0.0449999999999999983	2.1281999999999974271
6.6.1	mac	0	2023-12-04	10:30:08	1	1	1	experiment	2	clock	160	520	2078	560	2	9	109	9	9	no erasure	no erasure	no erasure	0				4	8	6820	168	0	145		0	2	235	70			199				0.6999999999999999556		59.625	168	183	153	220	250	109	3	cloud	wind	Planet2A.png	Ship2A.png	Mushroom2A.png	blank.png	0.0449999999999999983	2.1281999999999974271
6.6.1	mac	0	2023-12-04	10:30:08	1	1	1	experiment	2	feedback	160	520	700	330	2	10	109	9	9	no erasure	no erasure	no erasure	0				4	8	6820	168	0	145		0	2	235	70	131.6160000000000138698	1828	196	150	196	0.0539066626350178033	0.6999999999999999556		59.625	168	183	153	220	250	109	3	cloud	wind	Planet2A.png	Ship2A.png	Mushroom2A.png	blank.png	0.0449999999999999983	2.1731999999999973561
6.6.1	mac	0	2023-12-04	10:30:08	1	1	1	experiment	2	clock	170	670	3516	330	2	10	110	10	10	no erasure	no erasure	no erasure	0				4	8	6820	168	0	145		0	2	235	40			196				0.6999999999999999556		59.625	168	183	153	220	250	110	3	cloud	wind	Planet2A.png	Ship2A.png	Mushroom2A.png	blank.png	0.0449999999999999983	2.1731999999999973561
6.6.1	mac	0	2023-12-04	10:30:08	1	1	1	experiment	2	feedback	170	670	700	500	2	11	110	10	10	no erasure	no erasure	no erasure	0				4	8	6820	168	0	145		0	2	235	40	127.1520000000000010232	1766	198	150	198	0.1069400003428896823	0.6999999999999999556		59.625	168	183	153	220	250	110	3	cloud	wind	Planet2A.png	Ship2A.png	Mushroom2A.png	blank.png	0.0449999999999999983	2.218199999999997285
6.6.1	mac	0	2023-12-04	10:30:08	1	1	1	experiment	2	clock	390	560	1163	500	2	11	111	11	1	erasure	erasure	no erasure	1	1			4	11	6820	129	1	145	0	0	2	219	87			198				0.6999999999999999556	0	194	129	144	114	204	234	111	4	cloud	wind	Planet2A.png	Ship2A.png	Mushroom2A.png	wind0.png	0.0449999999999999983	2.218199999999997285
6.6.1	mac	0	2023-12-04	10:30:08	1	1	1	experiment	2	feedback	390	560	700	370	2	12	111	11	1	erasure	erasure	no erasure	0	1			4	11	6820	129	1	145	0	0	2	219	87	126.9360000000000070486	1763	194.9872592592592752681	150	194.9872592592592752681	0.0536561443129685081	0.6999999999999999556	0	194	129	144	114	204	234	111	4	cloud	wind	Planet2A.png	Ship2A.png	Mushroom2A.png	wind0.png	0.0449999999999999983	2.263199999999997214
6.6.1	mac	0	2023-12-04	10:30:08	1	1	1	experiment	2	clock	340	500	2731	370	2	12	112	12	2	erasure	erasure	erasure	0	2			4	11	6820	129	1	145	0	0	2	219	53			194.9872592592592752681				0.6999999999999999556	0	194	129	144	114	204	234	112	4	cloud	wind	Planet2A.png	Ship2A.png	Mushroom2A.png	wind0.png	0.0449999999999999983	2.263199999999997214
6.6.1	mac	0	2023-12-04	10:30:08	1	1	1	experiment	2	feedback	340	500	700	430	2	13	112	12	2	erasure	erasure	erasure	0	2			4	11	6820	129	1	145	0	0	2	219	53	117.43200000000000216	1631	199.6960000000000263753	150	199.6960000000000263753	0.4559274295940826116	0.6999999999999999556	0	194	129	144	114	204	234	112	4	cloud	wind	Planet2A.png	Ship2A.png	Mushroom2A.png	wind0.png	0.0449999999999999983	2.3081999999999971429
6.6.1	mac	0	2023-12-04	10:30:08	1	1	1	experiment	2	clock	350	690	3337	430	2	13	113	13	3	erasure	erasure	erasure	0	3			4	11	6820	129	1	145	0	0	2	219	41			199.6960000000000263753				0.6999999999999999556	0	194	129	144	114	204	234	113	4	cloud	wind	Planet2A.png	Ship2A.png	Mushroom2A.png	wind0.png	0.0449999999999999983	2.3081999999999971429
6.6.1	mac	0	2023-12-04	10:30:08	1	1	1	experiment	2	feedback	350	690	700	300	2	14	113	13	3	erasure	erasure	erasure	0	3			4	11	6820	129	1	145	0	0	2	219	41	117.8640000000000043201	1637	199.381037037037032178	150	199.381037037037032178	0.3817754870703852221	0.6999999999999999556	0	194	129	144	114	204	234	113	4	cloud	wind	Planet2A.png	Ship2A.png	Mushroom2A.png	wind0.png	0.0449999999999999983	2.3531999999999970719
6.6.1	mac	0	2023-12-04	10:30:08	1	1	1	experiment	2	clock	400	700	370	300	2	14	114	14	4	erasure	erasure	erasure	0	4			4	11	6820	129	1	145	0	0	2	219	7			199.381037037037032178				0.6999999999999999556	0	194	129	144	114	204	234	114	4	cloud	wind	Planet2A.png	Ship2A.png	Mushroom2A.png	wind0.png	0.0449999999999999983	2.3531999999999970719
6.6.1	mac	0	2023-12-04	10:30:08	1	1	1	experiment	2	feedback	400	700	700	250	2	15	114	14	4	erasure	erasure	erasure	0	4			4	11	6820	129	1	145	0	0	2	219	7	141.8400000000000034106	1970	184.5976296296296368382	150	184.5976296296296368382	0.6323150693514186793	0.6999999999999999556	0	194	129	144	114	204	234	114	4	cloud	wind	Planet2A.png	Ship2A.png	Mushroom2A.png	wind0.png	0.0449999999999999983	2.3981999999999970008
6.6.1	mac	0	2023-12-04	10:30:08	1	1	1	experiment	2	clock	380	590	1897	250	2	15	115	15	5	erasure	erasure	erasure	0	5			4	11	6820	129	1	145	0	0	2	219	71			184.5976296296296368382				0.6999999999999999556	0	194	129	144	114	204	234	115	4	cloud	wind	Planet2A.png	Ship2A.png	Mushroom2A.png	wind0.png	0.0449999999999999983	2.3981999999999970008
6.6.1	mac	0	2023-12-04	10:30:08	1	1	1	experiment	2	feedback	380	590	700	260	2	16	115	15	5	erasure	erasure	erasure	0	5			4	11	6820	129	1	145	0	0	2	219	71	122.1839999999999974989	1697	197.467851851851861511	150	197.467851851851861511	0.4898651604284218197	0.6999999999999999556	0	194	129	144	114	204	234	115	4	cloud	wind	Planet2A.png	Ship2A.png	Mushroom2A.png	wind0.png	0.0449999999999999983	2.4431999999999969297
6.6.1	mac	0	2023-12-04	10:30:08	1	1	1	experiment	2	clock	260	550	3986	260	2	16	116	16	6	erasure	erasure	erasure	0	6			4	11	6820	129	1	145	0	0	2	219	29			197.467851851851861511				0.6999999999999999556	0	194	129	144	114	204	234	116	4	cloud	wind	Planet2A.png	Ship2A.png	Mushroom2A.png	wind0.png	0.0449999999999999983	2.4431999999999969297
6.6.1	mac	0	2023-12-04	10:30:08	1	1	1	experiment	2	feedback	260	550	700	200	2	17	116	16	6	erasure	erasure	erasure	0	6			4	11	6820	129	1	145	0	0	2	219	29	121.3919999999999959073	1686	197.838814814814810461	150	197.838814814814810461	0.6265813223148186673	0.6999999999999999556	0	194	129	144	114	204	234	116	4	cloud	wind	Planet2A.png	Ship2A.png	Mushroom2A.png	wind0.png	0.0449999999999999983	2.4881999999999968587
6.6.1	mac	0	2023-12-04	10:30:08	1	1	1	experiment	2	clock	360	650	745	200	2	17	117	17	7	erasure	erasure	erasure	0	7			4	11	6820	129	1	145	0	0	2	219	94			197.838814814814810461				0.6999999999999999556	0	194	129	144	114	204	234	117	4	cloud	wind	Planet2A.png	Ship2A.png	Mushroom2A.png	wind0.png	0.0449999999999999983	2.4881999999999968587
6.6.1	mac	0	2023-12-04	10:30:08	1	1	1	experiment	2	feedback	360	650	700	570	2	18	117	17	7	erasure	erasure	erasure	0	7			4	11	6820	129	1	145	0	0	2	219	94	122.0400000000000062528	1695	197.467851851851861511	150	197.467851851851861511	0.6300360687612639454	0.6999999999999999556	0	194	129	144	114	204	234	117	4	cloud	wind	Planet2A.png	Ship2A.png	Mushroom2A.png	wind0.png	0.0449999999999999983	2.5331999999999967876
6.6.1	mac	0	2023-12-04	10:30:08	1	1	1	experiment	2	clock	290	620	3989	570	2	18	118	18	8	erasure	erasure	erasure	0	8			4	11	6820	129	1	145	0	0	2	219	27			197.467851851851861511				0.6999999999999999556	0	194	129	144	114	204	234	118	4	cloud	wind	Planet2A.png	Ship2A.png	Mushroom2A.png	wind0.png	0.0449999999999999983	2.5331999999999967876
6.6.1	mac	0	2023-12-04	10:30:08	1	1	1	experiment	2	feedback	290	620	700	230	2	19	118	18	8	erasure	erasure	erasure	0	8			4	11	6820	129	1	145	0	0	2	219	27	114.4080000000000012506	1589	200	10	10	0.7011680877071730933	0.6999999999999999556	0	194	129	144	114	204	234	118	4	cloud	wind	Planet2A.png	Ship2A.png	Mushroom2A.png	wind0.png	0.0029999999999999996	2.5361999999999969013
6.6.1	mac	0	2023-12-04	10:30:08	1	1	1	experiment	2	clock	440	680	4079	230	2	19	119	19	9	erasure	erasure	erasure	0	9			4	11	6820	129	1	145	0	0	2	219	28			200				0.6999999999999999556	0	194	129	144	114	204	234	119	4	cloud	wind	Planet2A.png	Ship2A.png	Mushroom2A.png	wind0.png	0.0029999999999999996	2.5361999999999969013
6.6.1	mac	0	2023-12-04	10:30:08	1	1	1	experiment	2	feedback	440	680	700	450	2	20	119	19	9	erasure	erasure	erasure	0	9			4	11	6820	129	1	145	0	0	2	219	28	124.4879999999999995453	1729	196.7407407407407049504	10	10	0.7898720609466247655	0.6999999999999999556	0	194	129	144	114	204	234	119	4	cloud	wind	Planet2A.png	Ship2A.png	Mushroom2A.png	wind0.png	0.0029999999999999996	2.539199999999997015
6.6.1	mac	0	2023-12-04	10:30:08	1	1	1	experiment	2	clock	320	510	3079	450	2	20	120	20	10	erasure	erasure	erasure	0	10			4	11	6820	129	1	145	0	0	2	219	48			196.7407407407407049504				0.6999999999999999556	0	181.4549999999999840838	129	144	114	204	234	120	4	cloud	wind	Planet2A.png	Ship2A.png	Mushroom2A.png	wind0.png	0.0029999999999999996	2.539199999999997015
6.6.1	mac	0	2023-12-04	10:30:08	1	1	1	experiment	2	feedback	320	510	700	520	2	21	120	20	10	erasure	erasure	erasure	0	10			4	11	6820	129	1	145	0	0	2	219	48	124.4879999999999995453	1729	184.12833333333330188	150	184.12833333333330188	0.0125546006049389487	0.6999999999999999556	0	181.4549999999999840838	129	144	114	204	234	120	4	cloud	wind	Planet2A.png	Ship2A.png	Mushroom2A.png	wind0.png	0.0449999999999999983	2.584199999999996944
6.6.1	mac	0	2023-12-04	10:30:08	1	1	1	experiment	2	clock	470	540	756	520	2	21	121	21	11	erasure	erasure	erasure	0	11			4	11	6820	129	1	145	0	0	2	219	96			184.12833333333330188				0.6999999999999999556	0	168.9099999999999965894	129	144	114	204	234	121	4	cloud	wind	Planet2A.png	Ship2A.png	Mushroom2A.png	wind0.png	0.0449999999999999983	2.584199999999996944
6.6.1	mac	0	2023-12-04	10:30:08	1	1	1	experiment	2	feedback	470	540	700	220	2	22	121	21	11	erasure	erasure	erasure	0	11			4	11	6820	129	1	145	0	0	2	219	96	130.0320000000000106866	1806	168.2479200000000219006	10	10	0.8362746287221728414	0.6999999999999999556	0	168.9099999999999965894	129	144	114	204	234	121	4	cloud	wind	Planet2A.png	Ship2A.png	Mushroom2A.png	wind0.png	0.0029999999999999996	2.5871999999999970576
6.6.1	mac	0	2023-12-04	10:30:08	1	1	1	experiment	2	clock	310	640	398	220	2	22	122	22	12	erasure	erasure	erasure	0	12			4	11	6820	129	1	145	0	0	2	219	8			168.2479200000000219006				0.6999999999999999556	0	165.4549999999999840838	129	144	114	204	234	122	4	cloud	wind	Planet2A.png	Ship2A.png	Mushroom2A.png	wind0.png	0.0029999999999999996	2.5871999999999970576
6.6.1	mac	0	2023-12-04	10:30:08	1	1	1	experiment	2	feedback	310	640	700	320	2	23	122	22	12	erasure	erasure	erasure	0	12			4	11	6820	129	1	145	0	0	2	219	8	147.4559999999999888587	2048	141	141	141	0.044435040802796151	0.6999999999999999556	0	165.4549999999999840838	129	144	114	204	234	122	4	cloud	wind	Planet2A.png	Ship2A.png	Mushroom2A.png	wind0.png	0.0422999999999999973	2.6294999999999970619
6.6.1	mac	0	2023-12-04	10:30:08	1	1	1	experiment	2	clock	280	580	3423	320	2	23	123	23	13	erasure	erasure	erasure	0	13			4	11	6820	129	1	145	0	0	2	219	42			141				0.6999999999999999556	0	157.2274999999999920419	129	144	114	204	234	123	4	cloud	wind	Planet2A.png	Ship2A.png	Mushroom2A.png	wind0.png	0.0422999999999999973	2.6294999999999970619
6.6.1	mac	0	2023-12-04	10:30:08	1	1	1	experiment	2	feedback	280	580	700	380	2	24	123	23	13	erasure	erasure	erasure	0	13			4	11	6820	129	1	145	0	0	2	219	42	127.6560000000000059117	1773	157.6851281481481521496	150	157.6851281481481521496	0.1152602928027651047	0.6999999999999999556	0	157.2274999999999920419	129	144	114	204	234	123	4	cloud	wind	Planet2A.png	Ship2A.png	Mushroom2A.png	wind0.png	0.0449999999999999983	2.6744999999999969909
6.6.1	mac	0	2023-12-04	10:30:08	1	1	1	experiment	2	clock	200	530	3320	380	2	24	124	24	14	erasure	erasure	erasure	0	14			4	11	6820	129	1	145	0	0	2	219	42			157.6851281481481521496				0.6999999999999999556	0	146.6137499999999818101	129	144	114	204	234	124	4	cloud	wind	Planet2A.png	Ship2A.png	Mushroom2A.png	wind0.png	0.0449999999999999983	2.6744999999999969909
6.6.1	mac	0	2023-12-04	10:30:08	1	1	1	experiment	2	feedback	200	530	700	580	2	25	124	24	14	erasure	erasure	erasure	0	14			4	11	6820	129	1	145	0	0	2	219	42	120.2399999999999948841	1670	143.2886099999999771626	143	143.2886099999999771626	0.1760353669934057175	0.6999999999999999556	0	146.6137499999999818101	129	144	114	204	234	124	4	cloud	wind	Planet2A.png	Ship2A.png	Mushroom2A.png	wind0.png	0.0428999999999999937	2.717399999999996929
6.6.1	mac	0	2023-12-04	10:30:08	1	1	1	experiment	2	clock	350	610	1563	580	2	25	125	25	15	erasure	erasure	erasure	0	15			4	11	6820	129	1	145	0	0	2	219	77			143.2886099999999771626				0.6999999999999999556	0	134.8068749999999909051	129	144	114	204	234	125	4	cloud	wind	Planet2A.png	Ship2A.png	Mushroom2A.png	wind0.png	0.0428999999999999937	2.717399999999996929
6.6.1	mac	0	2023-12-04	10:30:08	1	1	1	experiment	2	feedback	350	610	700	410	2	26	125	25	15	erasure	erasure	erasure	0	15			4	11	6820	129	1	145	0	0	2	219	77	119.7360000000000042064	1663	130.8823050000000023374	10	10	0.8284365848704325908	0.6999999999999999556	0	134.8068749999999909051	129	144	114	204	234	125	4	cloud	wind	Planet2A.png	Ship2A.png	Mushroom2A.png	wind0.png	0.0029999999999999996	2.7203999999999970427
6.6.1	mac	0	2023-12-04	10:30:08	1	1	1	experiment	2	clock	210	630	1578	410	2	26	126	26	16	erasure	erasure	erasure	0	16			4	11	6820	129	1	145	0	0	2	219	80			130.8823050000000023374				0.6999999999999999556	0	122.4034374999999954525	129	144	114	204	234	126	4	cloud	wind	Planet2A.png	Ship2A.png	Mushroom2A.png	wind0.png	0.0029999999999999996	2.7203999999999970427
6.6.1	mac	0	2023-12-04	10:30:08	1	1	1	experiment	2	feedback	210	630	700	420	2	27	126	26	16	erasure	erasure	erasure	0	16			4	11	6820	129	1	145	0	0	2	219	80	131.6160000000000138698	1828	120.1728449999999952524	120	120.1728449999999952524	0.2543680065438077009	0.6999999999999999556	0	122.4034374999999954525	129	144	114	204	234	126	4	cloud	wind	Planet2A.png	Ship2A.png	Mushroom2A.png	wind0.png	0.0359999999999999973	2.7563999999999970747
6.6.1	mac	0	2023-12-04	10:30:08	1	1	1	experiment	2	clock	410	520	3772	420	2	27	127	27	17	erasure	erasure	erasure	0				4	11	6820	129	1	145	0	0	2	219	34			120.1728449999999952524				0.6999999999999999556	0	122.4034374999999954525	129	144	114	204	234	127	4	cloud	wind	Planet2A.png	Ship2A.png	Mushroom2A.png	wind0.png	0.0359999999999999973	2.7563999999999970747
6.6.1	mac	0	2023-12-04	10:30:08	1	1	1	experiment	2	feedback	410	520	700	600	2	28	127	27	17	erasure	erasure	erasure	0				4	11	6820	129	1	145	0	0	2	219	34	123.9839999999999946567	1722	119.6584837962962808433	120	119.6584837962962808433	0.3584377792101441362	0.6999999999999999556	0	122.4034374999999954525	129	144	114	204	234	127	4	cloud	wind	Planet2A.png	Ship2A.png	Mushroom2A.png	wind0.png	0.0359999999999999973	2.7923999999999971067
6.6.1	mac	0	2023-12-04	10:30:08	1	1	1	experiment	2	clock	390	590	2723	600	2	28	128	28	18	erasure	erasure	erasure	0				4	11	6820	129	1	145	0	0	2	219	57			119.6584837962962808433				0.6999999999999999556	0	122.4034374999999954525	129	144	114	204	234	128	4	cloud	wind	Planet2A.png	Ship2A.png	Mushroom2A.png	wind0.png	0.0359999999999999973	2.7923999999999971067
6.6.1	mac	0	2023-12-04	10:30:08	1	1	1	experiment	2	feedback	390	590	700	380	2	29	128	28	18	erasure	erasure	erasure	0				4	11	6820	129	1	145	0	0	2	219	57	131.2560000000000002274	1823	120.6562684259259157216	121	120.6562684259259157216	0.035807437271766232	0.6999999999999999556	0	122.4034374999999954525	129	144	114	204	234	128	4	cloud	wind	Planet2A.png	Ship2A.png	Mushroom2A.png	wind0.png	0.0362999999999999989	2.8286999999999968836
6.6.1	mac	0	2023-12-04	10:30:08	1	1	1	experiment	2	clock	380	580	79	380	2	29	129	29	19	erasure	erasure	erasure	0				4	11	6820	129	1	145	0	0	2	219	15			120.6562684259259157216				0.6999999999999999556	0	122.4034374999999954525	129	144	114	204	234	129	4	cloud	wind	Planet2A.png	Ship2A.png	Mushroom2A.png	wind0.png	0.0362999999999999989	2.8286999999999968836
6.6.1	mac	0	2023-12-04	10:30:08	1	1	1	experiment	2	feedback	380	580	700	360	2	30	129	29	19	erasure	erasure	erasure	0				4	11	6820	129	1	145	0	0	2	219	15	149.6879999999999881766	2079	61	61	61	0.5023420882649585195	0.6999999999999999556	0	122.4034374999999954525	129	144	114	204	234	129	4	cloud	wind	Planet2A.png	Ship2A.png	Mushroom2A.png	wind0.png	0.0182999999999999968	2.8469999999999968665
6.6.1	mac	0	2023-12-04	10:30:08	1	1	1	experiment	2	clock	400	660	258	360	2	30	130	30	20	erasure	erasure	erasure	0				4	11	6820	129	1	145	0	0	2	219	5			61				0.6999999999999999556	0	122.4034374999999954525	129	144	114	204	234	130	4	cloud	wind	Planet2A.png	Ship2A.png	Mushroom2A.png	wind0.png	0.0182999999999999968	2.8469999999999968665
6.6.1	mac	0	2023-12-04	10:30:08	1	1	1	experiment	2	feedback	400	660	700	260	2	31	130	30	20	erasure	erasure	erasure	0				4	11	6820	129	1	145	0	0	2	219	5	126.5759999999999934062	1758	121.1113795370370240789	121	121.1113795370370240789	0.2743483787109955441	0.6999999999999999556	0	122.4034374999999954525	129	144	114	204	234	130	4	cloud	wind	Planet2A.png	Ship2A.png	Mushroom2A.png	wind0.png	0.0362999999999999989	2.8832999999999966434
6.6.1	mac	0	2023-12-04	10:30:08	1	1	1	experiment	2	clock	130	690	1260	260	2	31	131	31	1	no erasure	no erasure	erasure	0				4	11	6820	129	0	145		0	2	219	86			121.1113795370370240789				0.6999999999999999556		122.4034374999999954525	129	144	114	204	234	131	4	cloud	wind	Planet2A.png	Ship2A.png	Mushroom2A.png	blank.png	0.0362999999999999989	2.8832999999999966434
6.6.1	mac	0	2023-12-04	10:30:08	1	1	1	experiment	2	feedback	130	690	700	540	2	32	131	31	1	no erasure	no erasure	erasure	0				4	11	6820	129	0	145		0	2	219	86	130.3199999999999931788	1810	44	10	10	0.8465609438360112149	0.6999999999999999556		122.4034374999999954525	129	144	114	204	234	131	4	cloud	wind	Planet2A.png	Ship2A.png	Mushroom2A.png	blank.png	0.0029999999999999996	2.8862999999999967571
6.6.1	mac	0	2023-12-04	10:30:08	1	1	1	experiment	2	clock	150	510	794	540	2	32	132	32	2	no erasure	no erasure	no erasure	0				4	11	6820	129	0	145		0	2	219	95			44				0.6999999999999999556		122.4034374999999954525	129	144	114	204	234	132	4	cloud	wind	Planet2A.png	Ship2A.png	Mushroom2A.png	blank.png	0.0029999999999999996	2.8862999999999967571
6.6.1	mac	0	2023-12-04	10:30:08	1	1	1	experiment	2	feedback	150	510	700	500	2	33	132	32	2	no erasure	no erasure	no erasure	0				4	11	6820	129	0	145		0	2	219	95	129.1680000000000063665	1794	32	32	32	0.0985462591281501266	0.6999999999999999556		122.4034374999999954525	129	144	114	204	234	132	4	cloud	wind	Planet2A.png	Ship2A.png	Mushroom2A.png	blank.png	0.0095999999999999992	2.895899999999996588
6.6.1	mac	0	2023-12-04	10:30:08	1	1	1	experiment	2	clock	340	560	938	500	2	33	133	33	3	no erasure	no erasure	no erasure	0				4	11	6820	129	0	145		0	2	219	93			32				0.6999999999999999556		122.4034374999999954525	129	144	114	204	234	133	4	cloud	wind	Planet2A.png	Ship2A.png	Mushroom2A.png	blank.png	0.0095999999999999992	2.895899999999996588
6.6.1	mac	0	2023-12-04	10:30:08	1	1	1	experiment	2	feedback	340	560	700	270	2	34	133	33	3	no erasure	no erasure	no erasure	0				4	11	6820	129	0	145		0	2	219	93	132.3360000000000127329	1838	13	13	13	0.552151576045935899	0.6999999999999999556		122.4034374999999954525	129	144	114	204	234	133	4	cloud	wind	Planet2A.png	Ship2A.png	Mushroom2A.png	blank.png	0.0038999999999999998	2.8997999999999963805
6.6.1	mac	0	2023-12-04	10:30:08	1	1	1	experiment	2	clock	330	540	182	270	2	34	134	34	4	no erasure	no erasure	no erasure	0				4	11	6820	129	0	145		0	2	219	23			13				0.6999999999999999556		122.4034374999999954525	129	144	114	204	234	134	4	cloud	wind	Planet2A.png	Ship2A.png	Mushroom2A.png	blank.png	0.0038999999999999998	2.8997999999999963805
6.6.1	mac	0	2023-12-04	10:30:08	1	1	1	experiment	2	feedback	330	540	700	400	2	35	134	34	4	no erasure	no erasure	no erasure	0				4	11	6820	129	0	145		0	2	219	23	185.903999999999996362	2582	31	31	31	0.3381881856681285825	0.6999999999999999556		122.4034374999999954525	129	144	114	204	234	134	4	cloud	wind	Planet2A.png	Ship2A.png	Mushroom2A.png	blank.png	0.0092999999999999992	2.9090999999999964665
6.6.1	mac	0	2023-12-04	10:30:08	1	1	1	experiment	2	clock	450	570	4892	400	2	35	135	35	5	no erasure	no erasure	no erasure	0				4	11	6820	129	0	145		0	2	219	16			31				0.6999999999999999556		122.4034374999999954525	129	144	114	204	234	135	4	cloud	wind	Planet2A.png	Ship2A.png	Mushroom2A.png	blank.png	0.0092999999999999992	2.9090999999999964665
6.6.1	mac	0	2023-12-04	10:30:08	1	1	1	experiment	2	feedback	450	570	700	370	2	36	135	35	5	no erasure	no erasure	no erasure	0				4	11	6820	129	0	145		0	2	219	16	139.8240000000000122782	1942	30	30	30	0.2067017476555662592	0.6999999999999999556		122.4034374999999954525	129	144	114	204	234	135	4	cloud	wind	Planet2A.png	Ship2A.png	Mushroom2A.png	blank.png	0.0089999999999999993	2.9180999999999963634
6.6.1	mac	0	2023-12-04	10:30:08	1	1	1	experiment	2	clock	240	630	2125	370	2	36	136	36	6	no erasure	no erasure	no erasure	0				4	11	6820	129	0	145		0	2	219	35			30				0.6999999999999999556		122.4034374999999954525	129	144	114	204	234	136	4	cloud	wind	Planet2A.png	Ship2A.png	Mushroom2A.png	blank.png	0.0089999999999999993	2.9180999999999963634
6.6.1	mac	0	2023-12-04	10:30:08	1	1	1	experiment	2	feedback	240	630	700	480	2	37	136	36	6	no erasure	no erasure	no erasure	0				4	11	6820	129	0	145		0	2	219	35	9	125	3	10	3	0.5752808995487356247	0.6999999999999999556		122.4034374999999954525	129	144	114	204	234	136	4	cloud	wind	Planet2A.png	Ship2A.png	Mushroom2A.png	blank.png	0.0029999999999999996	2.9210999999999964771
6.6.1	mac	0	2023-12-04	10:30:08	1	1	1	experiment	2	clock	290	640	1143	480	2	37	137	37	7	no erasure	no erasure	no erasure	0				4	11	6820	129	0	145		0	2	219	20			3				0.6999999999999999556		122.4034374999999954525	129	144	114	204	234	137	4	cloud	wind	Planet2A.png	Ship2A.png	Mushroom2A.png	blank.png	0.0029999999999999996	2.9210999999999964771
6.6.1	mac	0	2023-12-04	10:30:08	1	1	1	experiment	2	feedback	290	640	700	520	2	38	137	37	7	no erasure	no erasure	no erasure	0				4	11	6820	129	0	145		0	2	219	20	244.2959999999999922693	3393	63	63	63	0.5356436608209376171	0.6999999999999999556		122.4034374999999954525	129	144	114	204	234	137	4	cloud	wind	Planet2A.png	Ship2A.png	Mushroom2A.png	blank.png	0.0188999999999999967	2.939999999999996394
6.6.1	mac	0	2023-12-04	10:30:08	1	1	1	experiment	2	clock	280	650	1751	520	2	38	138	38	8	no erasure	no erasure	no erasure	0				4	11	6820	129	0	145		0	2	219	30			63				0.6999999999999999556		122.4034374999999954525	129	144	114	204	234	138	4	cloud	wind	Planet2A.png	Ship2A.png	Mushroom2A.png	blank.png	0.0188999999999999967	2.939999999999996394
6.6.1	mac	0	2023-12-04	10:30:08	1	1	1	experiment	2	feedback	280	650	700	460	2	39	138	38	8	no erasure	no erasure	no erasure	0				4	11	6820	129	0	145		0	2	219	30	324.0720000000000027285	4501	25	25	25	0.0152908465860623049	0.6999999999999999556		122.4034374999999954525	129	144	114	204	234	138	4	cloud	wind	Planet2A.png	Ship2A.png	Mushroom2A.png	blank.png	0.0074999999999999997	2.9474999999999962341
6.6.1	mac	0	2023-12-04	10:30:08	1	1	1	experiment	2	clock	170	700	299	460	2	39	139	39	9	no erasure	no erasure	no erasure	0				4	11	6820	129	0	145		0	2	219	77			25				0.6999999999999999556		122.4034374999999954525	129	144	114	204	234	139	4	cloud	wind	Planet2A.png	Ship2A.png	Mushroom2A.png	blank.png	0.0074999999999999997	2.9474999999999962341
6.6.1	mac	0	2023-12-04	10:30:08	1	1	1	experiment	2	feedback	170	700	700	470	2	40	139	39	9	no erasure	no erasure	no erasure	0				4	11	6820	129	0	145		0	2	219	77	28.7280000000000015348	399	1	10	10	0.8927154175221723165	0.6999999999999999556		122.4034374999999954525	129	144	114	204	234	139	4	cloud	wind	Planet2A.png	Ship2A.png	Mushroom2A.png	blank.png	0.0029999999999999996	2.9504999999999963478
6.6.1	mac	0	2023-12-04	10:30:08	1	1	1	experiment	2	clock	370	610	276	470	2	40	140	40	10	no erasure	no erasure	no erasure	0				4	11	6820	129	0	145		0	2	219	60			1				0.6999999999999999556		122.4034374999999954525	129	144	114	204	234	140	4	cloud	wind	Planet2A.png	Ship2A.png	Mushroom2A.png	blank.png	0.0029999999999999996	2.9504999999999963478
