build	computer.platform	computer.touch	date	time	subject	group	sessionid	blockcode	blocknum	trialcode	list.ITI.currentvalue	list.preClockFreeze.currentvalue	latency	list.ISI.currentvalue	block	trialCount	trial	run_trial	block_trial	block_type	trial_type	last_block_type	generate_new_erasure	trial_since_erasure_gen	att_index	era_index	x_final	y_final	ITI_index	seed	list.era_loc.currentvalue	has_erasure	list.att_loc.currentvalue	n_clicks	n_clicks_era_only	timeout_block	timeouts_remain	stim_center_deg	startPos	pos_shifted	rt_shifted	mag	inc_rg	inc	rng	freq	choose_stim	erasure_value	current_erasure	curr_min	list.spread.nextvalue	curr_mean	curr_max	new_mean	to_h	to_l	smooth_kernel2	rt_index	erasure_RT	right_index	left_index	stim_left_deg	stim_right_deg	erasure_blocks	attentional_control	local_uncertainty	picture.planet.item.1	picture.animatedCircle.item.1	picture.feedback2.items.1	picture.stim.item.1	Earnings	totalEarnings
6.6.1	mac	0	2024-01-16	15:14:04	1	ATT	1	presscont	1	scanner_sync			1428		0		0	0					1		0	0			481	6520						0	2		0	0	0	0	0	0		0.6999999999999999556																		0	cloud	wind	blank.png	blank.png	blank.png	fog0.png		0
6.6.1	mac	0	2024-01-16	15:14:04	1	ATT	1	presscont	1	countdown			1000		0		0	0					1		0	0			481	6520						0	2		0	0	0	0	0	0		0.6999999999999999556																		0	cloud	wind	blank.png	blank.png	blank.png	fog0.png		0
6.6.1	mac	0	2024-01-16	15:14:04	1	ATT	1	experiment	2	getValueVector	3440		0		1	1	1	1	1	no erasure	no erasure		1		0	0	1	9	481	6520		0			0	0	2		0			0				0.6999999999999999556				0		nan	0											0	cloud	wind	Planet1A.png	Ship1A.png	blank.png	blank.png		0
6.6.1	mac	0	2024-01-16	15:14:04	1	ATT	1	experiment	2	getValueVector	3440		0		1	1	1	1	1	no erasure	no erasure		1		0	0	2	9	481	6520		0			0	0	2		0			0				0.6999999999999999556				0		nan	0											0	cloud	wind	Planet1A.png	Ship1A.png	blank.png	blank.png		0
6.6.1	mac	0	2024-01-16	15:14:04	1	ATT	1	experiment	2	getValueVector	3440		0		1	1	1	1	1	no erasure	no erasure		1		0	0	3	8	481	6520		0			0	0	2		0			0				0.6999999999999999556				0		nan	0											0	cloud	wind	Planet1A.png	Ship1A.png	blank.png	blank.png		0
6.6.1	mac	0	2024-01-16	15:14:04	1	ATT	1	experiment	2	getValueVector	3440		0		1	1	1	1	1	no erasure	no erasure		1		0	0	4	8	481	6520		0			0	0	2		0			0				0.6999999999999999556				0		nan	0											0	cloud	wind	Planet1A.png	Ship1A.png	blank.png	blank.png		0
6.6.1	mac	0	2024-01-16	15:14:04	1	ATT	1	experiment	2	getValueVector	3440		0		1	1	1	1	1	no erasure	no erasure		1		0	0	5	7	481	6520		0			0	0	2		0			0				0.6999999999999999556				0		nan	0											0	cloud	wind	Planet1A.png	Ship1A.png	blank.png	blank.png		0
6.6.1	mac	0	2024-01-16	15:14:04	1	ATT	1	experiment	2	getValueVector	3440		0		1	1	1	1	1	no erasure	no erasure		1		0	0	6	7	481	6520		0			0	0	2		0			0				0.6999999999999999556				0		nan	0											0	cloud	wind	Planet1A.png	Ship1A.png	blank.png	blank.png		0
6.6.1	mac	0	2024-01-16	15:14:04	1	ATT	1	experiment	2	getValueVector	3440		0		1	1	1	1	1	no erasure	no erasure		1		0	0	7	7	481	6520		0			0	0	2		0			0				0.6999999999999999556				0		nan	0											0	cloud	wind	Planet1A.png	Ship1A.png	blank.png	blank.png		0
6.6.1	mac	0	2024-01-16	15:14:04	1	ATT	1	experiment	2	getValueVector	3440		0		1	1	1	1	1	no erasure	no erasure		1		0	0	8	6	481	6520		0			0	0	2		0			0				0.6999999999999999556				0		nan	0											0	cloud	wind	Planet1A.png	Ship1A.png	blank.png	blank.png		0
6.6.1	mac	0	2024-01-16	15:14:04	1	ATT	1	experiment	2	getValueVector	3440		0		1	1	1	1	1	no erasure	no erasure		1		0	0	9	6	481	6520		0			0	0	2		0			0				0.6999999999999999556				0		nan	0											0	cloud	wind	Planet1A.png	Ship1A.png	blank.png	blank.png		0
6.6.1	mac	0	2024-01-16	15:14:04	1	ATT	1	experiment	2	getValueVector	3440		0		1	1	1	1	1	no erasure	no erasure		1		0	0	10	5	481	6520		0			0	0	2		0			0				0.6999999999999999556				0		nan	0											0	cloud	wind	Planet1A.png	Ship1A.png	blank.png	blank.png		0
6.6.1	mac	0	2024-01-16	15:14:04	1	ATT	1	experiment	2	getValueVector	3440		0		1	1	1	1	1	no erasure	no erasure		1		0	0	11	5	481	6520		0			0	0	2		0			0				0.6999999999999999556				0		nan	0											0	cloud	wind	Planet1A.png	Ship1A.png	blank.png	blank.png		0
6.6.1	mac	0	2024-01-16	15:14:04	1	ATT	1	experiment	2	getValueVector	3440		0		1	1	1	1	1	no erasure	no erasure		1		0	0	12	5	481	6520		0			0	0	2		0			0				0.6999999999999999556				0		nan	0											0	cloud	wind	Planet1A.png	Ship1A.png	blank.png	blank.png		0
6.6.1	mac	0	2024-01-16	15:14:04	1	ATT	1	experiment	2	getValueVector	3440		0		1	1	1	1	1	no erasure	no erasure		1		0	0	13	5	481	6520		0			0	0	2		0			0				0.6999999999999999556				0		nan	0											0	cloud	wind	Planet1A.png	Ship1A.png	blank.png	blank.png		0
6.6.1	mac	0	2024-01-16	15:14:04	1	ATT	1	experiment	2	getValueVector	3440		0		1	1	1	1	1	no erasure	no erasure		1		0	0	14	4	481	6520		0			0	0	2		0			0				0.6999999999999999556				0		nan	0											0	cloud	wind	Planet1A.png	Ship1A.png	blank.png	blank.png		0
6.6.1	mac	0	2024-01-16	15:14:04	1	ATT	1	experiment	2	getValueVector	3440		0		1	1	1	1	1	no erasure	no erasure		1		0	0	15	4	481	6520		0			0	0	2		0			0				0.6999999999999999556				0		nan	0											0	cloud	wind	Planet1A.png	Ship1A.png	blank.png	blank.png		0
6.6.1	mac	0	2024-01-16	15:14:04	1	ATT	1	experiment	2	getValueVector	3440		0		1	1	1	1	1	no erasure	no erasure		1		0	0	16	4	481	6520		0			0	0	2		0			0				0.6999999999999999556				0		nan	0											0	cloud	wind	Planet1A.png	Ship1A.png	blank.png	blank.png		0
6.6.1	mac	0	2024-01-16	15:14:04	1	ATT	1	experiment	2	getValueVector	3440		0		1	1	1	1	1	no erasure	no erasure		1		0	0	17	4	481	6520		0			0	0	2		0			0				0.6999999999999999556				0		nan	0											0	cloud	wind	Planet1A.png	Ship1A.png	blank.png	blank.png		0
6.6.1	mac	0	2024-01-16	15:14:04	1	ATT	1	experiment	2	getValueVector	3440		0		1	1	1	1	1	no erasure	no erasure		1		0	0	18	3	481	6520		0			0	0	2		0			0				0.6999999999999999556				0		nan	0											0	cloud	wind	Planet1A.png	Ship1A.png	blank.png	blank.png		0
6.6.1	mac	0	2024-01-16	15:14:04	1	ATT	1	experiment	2	getValueVector	3440		0		1	1	1	1	1	no erasure	no erasure		1		0	0	19	3	481	6520		0			0	0	2		0			0				0.6999999999999999556				0		nan	0											0	cloud	wind	Planet1A.png	Ship1A.png	blank.png	blank.png		0
6.6.1	mac	0	2024-01-16	15:14:04	1	ATT	1	experiment	2	getValueVector	3440		0		1	1	1	1	1	no erasure	no erasure		1		0	0	20	3	481	6520		0			0	0	2		0			0				0.6999999999999999556				0		nan	0											0	cloud	wind	Planet1A.png	Ship1A.png	blank.png	blank.png		0
6.6.1	mac	0	2024-01-16	15:14:04	1	ATT	1	experiment	2	getValueVector	3440		0		1	1	1	1	1	no erasure	no erasure		1		0	0	21	3	481	6520		0			0	0	2		0			0				0.6999999999999999556				0		nan	0											0	cloud	wind	Planet1A.png	Ship1A.png	blank.png	blank.png		0
6.6.1	mac	0	2024-01-16	15:14:04	1	ATT	1	experiment	2	getValueVector	3440		0		1	1	1	1	1	no erasure	no erasure		1		0	0	22	3	481	6520		0			0	0	2		0			0				0.6999999999999999556				0		nan	0											0	cloud	wind	Planet1A.png	Ship1A.png	blank.png	blank.png		0
6.6.1	mac	0	2024-01-16	15:14:04	1	ATT	1	experiment	2	getValueVector	3440		0		1	1	1	1	1	no erasure	no erasure		1		0	0	23	3	481	6520		0			0	0	2		0			0				0.6999999999999999556				0		nan	0											0	cloud	wind	Planet1A.png	Ship1A.png	blank.png	blank.png		0
6.6.1	mac	0	2024-01-16	15:14:04	1	ATT	1	experiment	2	getValueVector	3440		0		1	1	1	1	1	no erasure	no erasure		1		0	0	24	3	481	6520		0			0	0	2		0			0				0.6999999999999999556				0		nan	0											0	cloud	wind	Planet1A.png	Ship1A.png	blank.png	blank.png		0
6.6.1	mac	0	2024-01-16	15:14:04	1	ATT	1	experiment	2	getValueVector	3440		0		1	1	1	1	1	no erasure	no erasure		1		0	0	25	3	481	6520		0			0	0	2		0			0				0.6999999999999999556				0		nan	0											0	cloud	wind	Planet1A.png	Ship1A.png	blank.png	blank.png		0
6.6.1	mac	0	2024-01-16	15:14:04	1	ATT	1	experiment	2	getValueVector	3440		0		1	1	1	1	1	no erasure	no erasure		1		0	0	26	3	481	6520		0			0	0	2		0			0				0.6999999999999999556				0		nan	0											0	cloud	wind	Planet1A.png	Ship1A.png	blank.png	blank.png		0
6.6.1	mac	0	2024-01-16	15:14:04	1	ATT	1	experiment	2	getValueVector	3440		0		1	1	1	1	1	no erasure	no erasure		1		0	0	27	3	481	6520		0			0	0	2		0			0				0.6999999999999999556				0		nan	0											0	cloud	wind	Planet1A.png	Ship1A.png	blank.png	blank.png		0
6.6.1	mac	0	2024-01-16	15:14:04	1	ATT	1	experiment	2	getValueVector	3440		0		1	1	1	1	1	no erasure	no erasure		1		0	0	28	3	481	6520		0			0	0	2		0			0				0.6999999999999999556				0		nan	0											0	cloud	wind	Planet1A.png	Ship1A.png	blank.png	blank.png		0
6.6.1	mac	0	2024-01-16	15:14:04	1	ATT	1	experiment	2	getValueVector	3440		0		1	1	1	1	1	no erasure	no erasure		1		0	0	29	3	481	6520		0			0	0	2		0			0				0.6999999999999999556				0		nan	0											0	cloud	wind	Planet1A.png	Ship1A.png	blank.png	blank.png		0
6.6.1	mac	0	2024-01-16	15:14:04	1	ATT	1	experiment	2	getValueVector	3440		0		1	1	1	1	1	no erasure	no erasure		1		0	0	30	3	481	6520		0			0	0	2		0			0				0.6999999999999999556				0		nan	0											0	cloud	wind	Planet1A.png	Ship1A.png	blank.png	blank.png		0
6.6.1	mac	0	2024-01-16	15:14:04	1	ATT	1	experiment	2	getValueVector	3440		0		1	1	1	1	1	no erasure	no erasure		1		0	0	31	3	481	6520		0			0	0	2		0			0				0.6999999999999999556				0		nan	0											0	cloud	wind	Planet1A.png	Ship1A.png	blank.png	blank.png		0
6.6.1	mac	0	2024-01-16	15:14:04	1	ATT	1	experiment	2	getValueVector	3440		0		1	1	1	1	1	no erasure	no erasure		1		0	0	32	3	481	6520		0			0	0	2		0			0				0.6999999999999999556				0		nan	0											0	cloud	wind	Planet1A.png	Ship1A.png	blank.png	blank.png		0
6.6.1	mac	0	2024-01-16	15:14:04	1	ATT	1	experiment	2	getValueVector	3440		0		1	1	1	1	1	no erasure	no erasure		1		0	0	33	4	481	6520		0			0	0	2		0			0				0.6999999999999999556				0		nan	0											0	cloud	wind	Planet1A.png	Ship1A.png	blank.png	blank.png		0
6.6.1	mac	0	2024-01-16	15:14:04	1	ATT	1	experiment	2	getValueVector	3440		0		1	1	1	1	1	no erasure	no erasure		1		0	0	34	4	481	6520		0			0	0	2		0			0				0.6999999999999999556				0		nan	0											0	cloud	wind	Planet1A.png	Ship1A.png	blank.png	blank.png		0
6.6.1	mac	0	2024-01-16	15:14:04	1	ATT	1	experiment	2	getValueVector	3440		0		1	1	1	1	1	no erasure	no erasure		1		0	0	35	4	481	6520		0			0	0	2		0			0				0.6999999999999999556				0		nan	0											0	cloud	wind	Planet1A.png	Ship1A.png	blank.png	blank.png		0
6.6.1	mac	0	2024-01-16	15:14:04	1	ATT	1	experiment	2	getValueVector	3440		0		1	1	1	1	1	no erasure	no erasure		1		0	0	36	4	481	6520		0			0	0	2		0			0				0.6999999999999999556				0		nan	0											0	cloud	wind	Planet1A.png	Ship1A.png	blank.png	blank.png		0
6.6.1	mac	0	2024-01-16	15:14:04	1	ATT	1	experiment	2	getValueVector	3440		0		1	1	1	1	1	no erasure	no erasure		1		0	0	37	4	481	6520		0			0	0	2		0			0				0.6999999999999999556				0		nan	0											0	cloud	wind	Planet1A.png	Ship1A.png	blank.png	blank.png		0
6.6.1	mac	0	2024-01-16	15:14:04	1	ATT	1	experiment	2	getValueVector	3440		0		1	1	1	1	1	no erasure	no erasure		1		0	0	38	5	481	6520		0			0	0	2		0			0				0.6999999999999999556				0		nan	0											0	cloud	wind	Planet1A.png	Ship1A.png	blank.png	blank.png		0
6.6.1	mac	0	2024-01-16	15:14:04	1	ATT	1	experiment	2	getValueVector	3440		0		1	1	1	1	1	no erasure	no erasure		1		0	0	39	5	481	6520		0			0	0	2		0			0				0.6999999999999999556				0		nan	0											0	cloud	wind	Planet1A.png	Ship1A.png	blank.png	blank.png		0
6.6.1	mac	0	2024-01-16	15:14:04	1	ATT	1	experiment	2	getValueVector	3440		0		1	1	1	1	1	no erasure	no erasure		1		0	0	40	5	481	6520		0			0	0	2		0			0				0.6999999999999999556				0		nan	0											0	cloud	wind	Planet1A.png	Ship1A.png	blank.png	blank.png		0
6.6.1	mac	0	2024-01-16	15:14:04	1	ATT	1	experiment	2	getValueVector	3440		0		1	1	1	1	1	no erasure	no erasure		1		0	0	41	5	481	6520		0			0	0	2		0			0				0.6999999999999999556				0		nan	0											0	cloud	wind	Planet1A.png	Ship1A.png	blank.png	blank.png		0
6.6.1	mac	0	2024-01-16	15:14:04	1	ATT	1	experiment	2	getValueVector	3440		0		1	1	1	1	1	no erasure	no erasure		1		0	0	42	6	481	6520		0			0	0	2		0			0				0.6999999999999999556				0		nan	0											0	cloud	wind	Planet1A.png	Ship1A.png	blank.png	blank.png		0
6.6.1	mac	0	2024-01-16	15:14:04	1	ATT	1	experiment	2	getValueVector	3440		0		1	1	1	1	1	no erasure	no erasure		1		0	0	43	6	481	6520		0			0	0	2		0			0				0.6999999999999999556				0		nan	0											0	cloud	wind	Planet1A.png	Ship1A.png	blank.png	blank.png		0
6.6.1	mac	0	2024-01-16	15:14:04	1	ATT	1	experiment	2	getValueVector	3440		0		1	1	1	1	1	no erasure	no erasure		1		0	0	44	6	481	6520		0			0	0	2		0			0				0.6999999999999999556				0		nan	0											0	cloud	wind	Planet1A.png	Ship1A.png	blank.png	blank.png		0
6.6.1	mac	0	2024-01-16	15:14:04	1	ATT	1	experiment	2	getValueVector	3440		0		1	1	1	1	1	no erasure	no erasure		1		0	0	45	6	481	6520		0			0	0	2		0			0				0.6999999999999999556				0		nan	0											0	cloud	wind	Planet1A.png	Ship1A.png	blank.png	blank.png		0
6.6.1	mac	0	2024-01-16	15:14:04	1	ATT	1	experiment	2	getValueVector	3440		0		1	1	1	1	1	no erasure	no erasure		1		0	0	46	7	481	6520		0			0	0	2		0			0				0.6999999999999999556				0		nan	0											0	cloud	wind	Planet1A.png	Ship1A.png	blank.png	blank.png		0
6.6.1	mac	0	2024-01-16	15:14:04	1	ATT	1	experiment	2	getValueVector	3440		0		1	1	1	1	1	no erasure	no erasure		1		0	0	47	7	481	6520		0			0	0	2		0			0				0.6999999999999999556				0		nan	0											0	cloud	wind	Planet1A.png	Ship1A.png	blank.png	blank.png		0
6.6.1	mac	0	2024-01-16	15:14:04	1	ATT	1	experiment	2	getValueVector	3440		0		1	1	1	1	1	no erasure	no erasure		1		0	0	48	7	481	6520		0			0	0	2		0			0				0.6999999999999999556				0		nan	0											0	cloud	wind	Planet1A.png	Ship1A.png	blank.png	blank.png		0
6.6.1	mac	0	2024-01-16	15:14:04	1	ATT	1	experiment	2	getValueVector	3440		0		1	1	1	1	1	no erasure	no erasure		1		0	0	49	8	481	6520		0			0	0	2		0			0				0.6999999999999999556				0		nan	0											0	cloud	wind	Planet1A.png	Ship1A.png	blank.png	blank.png		0
6.6.1	mac	0	2024-01-16	15:14:04	1	ATT	1	experiment	2	getValueVector	3440		0		1	1	1	1	1	no erasure	no erasure		1		0	0	50	8	481	6520		0			0	0	2		0			0				0.6999999999999999556				0		nan	0											0	cloud	wind	Planet1A.png	Ship1A.png	blank.png	blank.png		0
6.6.1	mac	0	2024-01-16	15:14:04	1	ATT	1	experiment	2	getValueVector	3440		0		1	1	1	1	1	no erasure	no erasure		1		0	0	51	8	481	6520		0			0	0	2		0			0				0.6999999999999999556				0		nan	0											0	cloud	wind	Planet1A.png	Ship1A.png	blank.png	blank.png		0
6.6.1	mac	0	2024-01-16	15:14:04	1	ATT	1	experiment	2	getValueVector	3440		0		1	1	1	1	1	no erasure	no erasure		1		0	0	52	8	481	6520		0			0	0	2		0			0				0.6999999999999999556				0		nan	0											0	cloud	wind	Planet1A.png	Ship1A.png	blank.png	blank.png		0
6.6.1	mac	0	2024-01-16	15:14:04	1	ATT	1	experiment	2	getValueVector	3440		0		1	1	1	1	1	no erasure	no erasure		1		0	0	53	9	481	6520		0			0	0	2		0			0				0.6999999999999999556				0		nan	0											0	cloud	wind	Planet1A.png	Ship1A.png	blank.png	blank.png		0
6.6.1	mac	0	2024-01-16	15:14:04	1	ATT	1	experiment	2	getValueVector	3440		0		1	1	1	1	1	no erasure	no erasure		1		0	0	54	9	481	6520		0			0	0	2		0			0				0.6999999999999999556				0		nan	0											0	cloud	wind	Planet1A.png	Ship1A.png	blank.png	blank.png		0
6.6.1	mac	0	2024-01-16	15:14:04	1	ATT	1	experiment	2	getValueVector	3440		0		1	1	1	1	1	no erasure	no erasure		1		0	0	55	9	481	6520		0			0	0	2		0			0				0.6999999999999999556				0		nan	0											0	cloud	wind	Planet1A.png	Ship1A.png	blank.png	blank.png		0
6.6.1	mac	0	2024-01-16	15:14:04	1	ATT	1	experiment	2	getValueVector	3440		0		1	1	1	1	1	no erasure	no erasure		1		0	0	56	9	481	6520		0			0	0	2		0			0				0.6999999999999999556				0		nan	0											0	cloud	wind	Planet1A.png	Ship1A.png	blank.png	blank.png		0
6.6.1	mac	0	2024-01-16	15:14:04	1	ATT	1	experiment	2	getValueVector	3440		0		1	1	1	1	1	no erasure	no erasure		1		0	0	57	10	481	6520		0			0	0	2		0			0				0.6999999999999999556				0		nan	0											0	cloud	wind	Planet1A.png	Ship1A.png	blank.png	blank.png		0
6.6.1	mac	0	2024-01-16	15:14:04	1	ATT	1	experiment	2	getValueVector	3440		0		1	1	1	1	1	no erasure	no erasure		1		0	0	58	10	481	6520		0			0	0	2		0			0				0.6999999999999999556				0		nan	0											0	cloud	wind	Planet1A.png	Ship1A.png	blank.png	blank.png		0
6.6.1	mac	0	2024-01-16	15:14:04	1	ATT	1	experiment	2	getValueVector	3440		0		1	1	1	1	1	no erasure	no erasure		1		0	0	59	10	481	6520		0			0	0	2		0			0				0.6999999999999999556				0		nan	0											0	cloud	wind	Planet1A.png	Ship1A.png	blank.png	blank.png		0
6.6.1	mac	0	2024-01-16	15:14:04	1	ATT	1	experiment	2	getValueVector	3440		0		1	1	1	1	1	no erasure	no erasure		1		0	0	60	10	481	6520		0			0	0	2		0			0				0.6999999999999999556				0		nan	0											0	cloud	wind	Planet1A.png	Ship1A.png	blank.png	blank.png		0
6.6.1	mac	0	2024-01-16	15:14:04	1	ATT	1	experiment	2	getValueVector	3440		0		1	1	1	1	1	no erasure	no erasure		1		0	0	61	10	481	6520		0			0	0	2		0			0				0.6999999999999999556				0		nan	0											0	cloud	wind	Planet1A.png	Ship1A.png	blank.png	blank.png		0
6.6.1	mac	0	2024-01-16	15:14:04	1	ATT	1	experiment	2	getValueVector	3440		0		1	1	1	1	1	no erasure	no erasure		1		0	0	62	11	481	6520		0			0	0	2		0			0				0.6999999999999999556				0		nan	0											0	cloud	wind	Planet1A.png	Ship1A.png	blank.png	blank.png		0
6.6.1	mac	0	2024-01-16	15:14:04	1	ATT	1	experiment	2	getValueVector	3440		0		1	1	1	1	1	no erasure	no erasure		1		0	0	63	11	481	6520		0			0	0	2		0			0				0.6999999999999999556				0		nan	0											0	cloud	wind	Planet1A.png	Ship1A.png	blank.png	blank.png		0
6.6.1	mac	0	2024-01-16	15:14:04	1	ATT	1	experiment	2	getValueVector	3440		0		1	1	1	1	1	no erasure	no erasure		1		0	0	64	11	481	6520		0			0	0	2		0			0				0.6999999999999999556				0		nan	0											0	cloud	wind	Planet1A.png	Ship1A.png	blank.png	blank.png		0
6.6.1	mac	0	2024-01-16	15:14:04	1	ATT	1	experiment	2	getValueVector	3440		0		1	1	1	1	1	no erasure	no erasure		1		0	0	65	11	481	6520		0			0	0	2		0			0				0.6999999999999999556				0		nan	0											0	cloud	wind	Planet1A.png	Ship1A.png	blank.png	blank.png		0
6.6.1	mac	0	2024-01-16	15:14:04	1	ATT	1	experiment	2	getValueVector	3440		0		1	1	1	1	1	no erasure	no erasure		1		0	0	66	11	481	6520		0			0	0	2		0			0				0.6999999999999999556				0		nan	0											0	cloud	wind	Planet1A.png	Ship1A.png	blank.png	blank.png		0
6.6.1	mac	0	2024-01-16	15:14:04	1	ATT	1	experiment	2	getValueVector	3440		0		1	1	1	1	1	no erasure	no erasure		1		0	0	67	11	481	6520		0			0	0	2		0			0				0.6999999999999999556				0		nan	0											0	cloud	wind	Planet1A.png	Ship1A.png	blank.png	blank.png		0
6.6.1	mac	0	2024-01-16	15:14:04	1	ATT	1	experiment	2	getValueVector	3440		0		1	1	1	1	1	no erasure	no erasure		1		0	0	68	12	481	6520		0			0	0	2		0			0				0.6999999999999999556				0		nan	0											0	cloud	wind	Planet1A.png	Ship1A.png	blank.png	blank.png		0
6.6.1	mac	0	2024-01-16	15:14:04	1	ATT	1	experiment	2	getValueVector	3440		0		1	1	1	1	1	no erasure	no erasure		1		0	0	69	12	481	6520		0			0	0	2		0			0				0.6999999999999999556				0		nan	0											0	cloud	wind	Planet1A.png	Ship1A.png	blank.png	blank.png		0
6.6.1	mac	0	2024-01-16	15:14:04	1	ATT	1	experiment	2	getValueVector	3440		0		1	1	1	1	1	no erasure	no erasure		1		0	0	70	12	481	6520		0			0	0	2		0			0				0.6999999999999999556				0		nan	0											0	cloud	wind	Planet1A.png	Ship1A.png	blank.png	blank.png		0
6.6.1	mac	0	2024-01-16	15:14:04	1	ATT	1	experiment	2	getValueVector	3440		0		1	1	1	1	1	no erasure	no erasure		1		0	0	71	12	481	6520		0			0	0	2		0			0				0.6999999999999999556				0		nan	0											0	cloud	wind	Planet1A.png	Ship1A.png	blank.png	blank.png		0
6.6.1	mac	0	2024-01-16	15:14:04	1	ATT	1	experiment	2	getValueVector	3440		0		1	1	1	1	1	no erasure	no erasure		1		0	0	72	12	481	6520		0			0	0	2		0			0				0.6999999999999999556				0		nan	0											0	cloud	wind	Planet1A.png	Ship1A.png	blank.png	blank.png		0
6.6.1	mac	0	2024-01-16	15:14:04	1	ATT	1	experiment	2	getValueVector	3440		0		1	1	1	1	1	no erasure	no erasure		1		0	0	73	12	481	6520		0			0	0	2		0			0				0.6999999999999999556				0		nan	0											0	cloud	wind	Planet1A.png	Ship1A.png	blank.png	blank.png		0
6.6.1	mac	0	2024-01-16	15:14:04	1	ATT	1	experiment	2	getValueVector	3440		0		1	1	1	1	1	no erasure	no erasure		1		0	0	74	12	481	6520		0			0	0	2		0			0				0.6999999999999999556				0		nan	0											0	cloud	wind	Planet1A.png	Ship1A.png	blank.png	blank.png		0
6.6.1	mac	0	2024-01-16	15:14:04	1	ATT	1	experiment	2	getValueVector	3440		0		1	1	1	1	1	no erasure	no erasure		1		0	0	75	12	481	6520		0			0	0	2		0			0				0.6999999999999999556				0		nan	0											0	cloud	wind	Planet1A.png	Ship1A.png	blank.png	blank.png		0
6.6.1	mac	0	2024-01-16	15:14:04	1	ATT	1	experiment	2	getValueVector	3440		0		1	1	1	1	1	no erasure	no erasure		1		0	0	76	12	481	6520		0			0	0	2		0			0				0.6999999999999999556				0		nan	0											0	cloud	wind	Planet1A.png	Ship1A.png	blank.png	blank.png		0
6.6.1	mac	0	2024-01-16	15:14:04	1	ATT	1	experiment	2	getValueVector	3440		0		1	1	1	1	1	no erasure	no erasure		1		0	0	77	12	481	6520		0			0	0	2		0			0				0.6999999999999999556				0		nan	0											0	cloud	wind	Planet1A.png	Ship1A.png	blank.png	blank.png		0
6.6.1	mac	0	2024-01-16	15:14:04	1	ATT	1	experiment	2	getValueVector	3440		0		1	1	1	1	1	no erasure	no erasure		1		0	0	78	12	481	6520		0			0	0	2		0			0				0.6999999999999999556				0		nan	0											0	cloud	wind	Planet1A.png	Ship1A.png	blank.png	blank.png		0
6.6.1	mac	0	2024-01-16	15:14:04	1	ATT	1	experiment	2	getValueVector	3440		0		1	1	1	1	1	no erasure	no erasure		1		0	0	79	13	481	6520		0			0	0	2		0			0				0.6999999999999999556				0		nan	0											0	cloud	wind	Planet1A.png	Ship1A.png	blank.png	blank.png		0
6.6.1	mac	0	2024-01-16	15:14:04	1	ATT	1	experiment	2	getValueVector	3440		0		1	1	1	1	1	no erasure	no erasure		1		0	0	80	13	481	6520		0			0	0	2		0			0				0.6999999999999999556				0		nan	0											0	cloud	wind	Planet1A.png	Ship1A.png	blank.png	blank.png		0
6.6.1	mac	0	2024-01-16	15:14:04	1	ATT	1	experiment	2	getValueVector	3440		0		1	1	1	1	1	no erasure	no erasure		1		0	0	81	13	481	6520		0			0	0	2		0			0				0.6999999999999999556				0		nan	0											0	cloud	wind	Planet1A.png	Ship1A.png	blank.png	blank.png		0
6.6.1	mac	0	2024-01-16	15:14:04	1	ATT	1	experiment	2	getValueVector	3440		0		1	1	1	1	1	no erasure	no erasure		1		0	0	82	13	481	6520		0			0	0	2		0			0				0.6999999999999999556				0		nan	0											0	cloud	wind	Planet1A.png	Ship1A.png	blank.png	blank.png		0
6.6.1	mac	0	2024-01-16	15:14:04	1	ATT	1	experiment	2	getValueVector	3440		0		1	1	1	1	1	no erasure	no erasure		1		0	0	83	13	481	6520		0			0	0	2		0			0				0.6999999999999999556				0		nan	0											0	cloud	wind	Planet1A.png	Ship1A.png	blank.png	blank.png		0
6.6.1	mac	0	2024-01-16	15:14:04	1	ATT	1	experiment	2	getValueVector	3440		0		1	1	1	1	1	no erasure	no erasure		1		0	0	84	13	481	6520		0			0	0	2		0			0				0.6999999999999999556				0		nan	0											0	cloud	wind	Planet1A.png	Ship1A.png	blank.png	blank.png		0
6.6.1	mac	0	2024-01-16	15:14:04	1	ATT	1	experiment	2	getValueVector	3440		0		1	1	1	1	1	no erasure	no erasure		1		0	0	85	13	481	6520		0			0	0	2		0			0				0.6999999999999999556				0		nan	0											0	cloud	wind	Planet1A.png	Ship1A.png	blank.png	blank.png		0
6.6.1	mac	0	2024-01-16	15:14:04	1	ATT	1	experiment	2	getValueVector	3440		0		1	1	1	1	1	no erasure	no erasure		1		0	0	86	13	481	6520		0			0	0	2		0			0				0.6999999999999999556				0		nan	0											0	cloud	wind	Planet1A.png	Ship1A.png	blank.png	blank.png		0
6.6.1	mac	0	2024-01-16	15:14:04	1	ATT	1	experiment	2	getValueVector	3440		0		1	1	1	1	1	no erasure	no erasure		1		0	0	87	13	481	6520		0			0	0	2		0			0				0.6999999999999999556				0		nan	0											0	cloud	wind	Planet1A.png	Ship1A.png	blank.png	blank.png		0
6.6.1	mac	0	2024-01-16	15:14:04	1	ATT	1	experiment	2	getValueVector	3440		0		1	1	1	1	1	no erasure	no erasure		1		0	0	88	13	481	6520		0			0	0	2		0			0				0.6999999999999999556				0		nan	0											0	cloud	wind	Planet1A.png	Ship1A.png	blank.png	blank.png		0
6.6.1	mac	0	2024-01-16	15:14:04	1	ATT	1	experiment	2	getValueVector	3440		0		1	1	1	1	1	no erasure	no erasure		1		0	0	89	13	481	6520		0			0	0	2		0			0				0.6999999999999999556				0		nan	0											0	cloud	wind	Planet1A.png	Ship1A.png	blank.png	blank.png		0
6.6.1	mac	0	2024-01-16	15:14:04	1	ATT	1	experiment	2	getValueVector	3440		0		1	1	1	1	1	no erasure	no erasure		1		0	0	90	13	481	6520		0			0	0	2		0			0				0.6999999999999999556				0		nan	0											0	cloud	wind	Planet1A.png	Ship1A.png	blank.png	blank.png		0
6.6.1	mac	0	2024-01-16	15:14:04	1	ATT	1	experiment	2	getValueVector	3440		0		1	1	1	1	1	no erasure	no erasure		1		0	0	91	13	481	6520		0			0	0	2		0			0				0.6999999999999999556				0		nan	0											0	cloud	wind	Planet1A.png	Ship1A.png	blank.png	blank.png		0
6.6.1	mac	0	2024-01-16	15:14:04	1	ATT	1	experiment	2	getValueVector	3440		0		1	1	1	1	1	no erasure	no erasure		1		0	0	92	14	481	6520		0			0	0	2		0			0				0.6999999999999999556				0		nan	0											0	cloud	wind	Planet1A.png	Ship1A.png	blank.png	blank.png		0
6.6.1	mac	0	2024-01-16	15:14:04	1	ATT	1	experiment	2	getValueVector	3440		0		1	1	1	1	1	no erasure	no erasure		1		0	0	93	14	481	6520		0			0	0	2		0			0				0.6999999999999999556				0		nan	0											0	cloud	wind	Planet1A.png	Ship1A.png	blank.png	blank.png		0
6.6.1	mac	0	2024-01-16	15:14:04	1	ATT	1	experiment	2	getValueVector	3440		0		1	1	1	1	1	no erasure	no erasure		1		0	0	94	14	481	6520		0			0	0	2		0			0				0.6999999999999999556				0		nan	0											0	cloud	wind	Planet1A.png	Ship1A.png	blank.png	blank.png		0
6.6.1	mac	0	2024-01-16	15:14:04	1	ATT	1	experiment	2	getValueVector	3440		0		1	1	1	1	1	no erasure	no erasure		1		0	0	95	14	481	6520		0			0	0	2		0			0				0.6999999999999999556				0		nan	0											0	cloud	wind	Planet1A.png	Ship1A.png	blank.png	blank.png		0
6.6.1	mac	0	2024-01-16	15:14:04	1	ATT	1	experiment	2	getValueVector	3440		0		1	1	1	1	1	no erasure	no erasure		1		0	0	96	14	481	6520		0			0	0	2		0			0				0.6999999999999999556				0		nan	0											0	cloud	wind	Planet1A.png	Ship1A.png	blank.png	blank.png		0
6.6.1	mac	0	2024-01-16	15:14:04	1	ATT	1	experiment	2	getValueVector	3440		0		1	1	1	1	1	no erasure	no erasure		1		0	0	97	14	481	6520		0			0	0	2		0			0				0.6999999999999999556				0		nan	0											0	cloud	wind	Planet1A.png	Ship1A.png	blank.png	blank.png		0
6.6.1	mac	0	2024-01-16	15:14:04	1	ATT	1	experiment	2	getValueVector	3440		0		1	1	1	1	1	no erasure	no erasure		1		0	0	98	14	481	6520		0			0	0	2		0			0				0.6999999999999999556				0		nan	0											0	cloud	wind	Planet1A.png	Ship1A.png	blank.png	blank.png		0
6.6.1	mac	0	2024-01-16	15:14:04	1	ATT	1	experiment	2	getValueVector	3440		0		1	1	1	1	1	no erasure	no erasure		1		0	0	99	14	481	6520		0			0	0	2		0			0				0.6999999999999999556				0		nan	0											0	cloud	wind	Planet1A.png	Ship1A.png	blank.png	blank.png		0
6.6.1	mac	0	2024-01-16	15:14:04	1	ATT	1	experiment	2	getValueVector	3440		0		1	1	1	1	1	no erasure	no erasure		1		0	0	100	14	481	6520		0			0	0	2		0			0				0.6999999999999999556				0		nan	0											0	cloud	wind	Planet1A.png	Ship1A.png	blank.png	blank.png		0
6.6.1	mac	0	2024-01-16	15:14:04	1	ATT	1	experiment	2	getValueVector	3440		0		1	1	1	1	1	no erasure	no erasure		1		0	0	101	14	481	6520		0			0	0	2		0			0				0.6999999999999999556				0		nan	0											0	cloud	wind	Planet1A.png	Ship1A.png	blank.png	blank.png		0
6.6.1	mac	0	2024-01-16	15:14:04	1	ATT	1	experiment	2	getValueVector	3440		0		1	1	1	1	1	no erasure	no erasure		1		0	0	102	15	481	6520		0			0	0	2		0			0				0.6999999999999999556				0		nan	0											0	cloud	wind	Planet1A.png	Ship1A.png	blank.png	blank.png		0
6.6.1	mac	0	2024-01-16	15:14:04	1	ATT	1	experiment	2	getValueVector	3440		0		1	1	1	1	1	no erasure	no erasure		1		0	0	103	15	481	6520		0			0	0	2		0			0				0.6999999999999999556				0		nan	0											0	cloud	wind	Planet1A.png	Ship1A.png	blank.png	blank.png		0
6.6.1	mac	0	2024-01-16	15:14:04	1	ATT	1	experiment	2	getValueVector	3440		0		1	1	1	1	1	no erasure	no erasure		1		0	0	104	15	481	6520		0			0	0	2		0			0				0.6999999999999999556				0		nan	0											0	cloud	wind	Planet1A.png	Ship1A.png	blank.png	blank.png		0
6.6.1	mac	0	2024-01-16	15:14:04	1	ATT	1	experiment	2	getValueVector	3440		0		1	1	1	1	1	no erasure	no erasure		1		0	0	105	15	481	6520		0			0	0	2		0			0				0.6999999999999999556				0		nan	0											0	cloud	wind	Planet1A.png	Ship1A.png	blank.png	blank.png		0
6.6.1	mac	0	2024-01-16	15:14:04	1	ATT	1	experiment	2	getValueVector	3440		0		1	1	1	1	1	no erasure	no erasure		1		0	0	106	15	481	6520		0			0	0	2		0			0				0.6999999999999999556				0		nan	0											0	cloud	wind	Planet1A.png	Ship1A.png	blank.png	blank.png		0
6.6.1	mac	0	2024-01-16	15:14:04	1	ATT	1	experiment	2	getValueVector	3440		0		1	1	1	1	1	no erasure	no erasure		1		0	0	107	15	481	6520		0			0	0	2		0			0				0.6999999999999999556				0		nan	0											0	cloud	wind	Planet1A.png	Ship1A.png	blank.png	blank.png		0
6.6.1	mac	0	2024-01-16	15:14:04	1	ATT	1	experiment	2	getValueVector	3440		0		1	1	1	1	1	no erasure	no erasure		1		0	0	108	15	481	6520		0			0	0	2		0			0				0.6999999999999999556				0		nan	0											0	cloud	wind	Planet1A.png	Ship1A.png	blank.png	blank.png		0
6.6.1	mac	0	2024-01-16	15:14:04	1	ATT	1	experiment	2	getValueVector	3440		0		1	1	1	1	1	no erasure	no erasure		1		0	0	109	15	481	6520		0			0	0	2		0			0				0.6999999999999999556				0		nan	0											0	cloud	wind	Planet1A.png	Ship1A.png	blank.png	blank.png		0
6.6.1	mac	0	2024-01-16	15:14:04	1	ATT	1	experiment	2	getValueVector	3440		0		1	1	1	1	1	no erasure	no erasure		1		0	0	110	15	481	6520		0			0	0	2		0			0				0.6999999999999999556				0		nan	0											0	cloud	wind	Planet1A.png	Ship1A.png	blank.png	blank.png		0
6.6.1	mac	0	2024-01-16	15:14:04	1	ATT	1	experiment	2	getValueVector	3440		0		1	1	1	1	1	no erasure	no erasure		1		0	0	111	15	481	6520		0			0	0	2		0			0				0.6999999999999999556				0		nan	0											0	cloud	wind	Planet1A.png	Ship1A.png	blank.png	blank.png		0
6.6.1	mac	0	2024-01-16	15:14:04	1	ATT	1	experiment	2	getValueVector	3440		0		1	1	1	1	1	no erasure	no erasure		1		0	0	112	15	481	6520		0			0	0	2		0			0				0.6999999999999999556				0		nan	0											0	cloud	wind	Planet1A.png	Ship1A.png	blank.png	blank.png		0
6.6.1	mac	0	2024-01-16	15:14:04	1	ATT	1	experiment	2	getValueVector	3440		0		1	1	1	1	1	no erasure	no erasure		1		0	0	113	15	481	6520		0			0	0	2		0			0				0.6999999999999999556				0		nan	0											0	cloud	wind	Planet1A.png	Ship1A.png	blank.png	blank.png		0
6.6.1	mac	0	2024-01-16	15:14:04	1	ATT	1	experiment	2	getValueVector	3440		0		1	1	1	1	1	no erasure	no erasure		1		0	0	114	15	481	6520		0			0	0	2		0			0				0.6999999999999999556				0		nan	0											0	cloud	wind	Planet1A.png	Ship1A.png	blank.png	blank.png		0
6.6.1	mac	0	2024-01-16	15:14:04	1	ATT	1	experiment	2	getValueVector	3440		0		1	1	1	1	1	no erasure	no erasure		1		0	0	115	15	481	6520		0			0	0	2		0			0				0.6999999999999999556				0		nan	0											0	cloud	wind	Planet1A.png	Ship1A.png	blank.png	blank.png		0
6.6.1	mac	0	2024-01-16	15:14:04	1	ATT	1	experiment	2	getValueVector	3440		0		1	1	1	1	1	no erasure	no erasure		1		0	0	116	15	481	6520		0			0	0	2		0			0				0.6999999999999999556				0		nan	0											0	cloud	wind	Planet1A.png	Ship1A.png	blank.png	blank.png		0
6.6.1	mac	0	2024-01-16	15:14:04	1	ATT	1	experiment	2	getValueVector	3440		0		1	1	1	1	1	no erasure	no erasure		1		0	0	117	15	481	6520		0			0	0	2		0			0				0.6999999999999999556				0		nan	0											0	cloud	wind	Planet1A.png	Ship1A.png	blank.png	blank.png		0
6.6.1	mac	0	2024-01-16	15:14:04	1	ATT	1	experiment	2	getValueVector	3440		0		1	1	1	1	1	no erasure	no erasure		1		0	0	118	15	481	6520		0			0	0	2		0			0				0.6999999999999999556				0		nan	0											0	cloud	wind	Planet1A.png	Ship1A.png	blank.png	blank.png		0
6.6.1	mac	0	2024-01-16	15:14:04	1	ATT	1	experiment	2	getValueVector	3440		0		1	1	1	1	1	no erasure	no erasure		1		0	0	119	15	481	6520		0			0	0	2		0			0				0.6999999999999999556				0		nan	0											0	cloud	wind	Planet1A.png	Ship1A.png	blank.png	blank.png		0
6.6.1	mac	0	2024-01-16	15:14:04	1	ATT	1	experiment	2	getValueVector	3440		0		1	1	1	1	1	no erasure	no erasure		1		0	0	120	15	481	6520		0			0	0	2		0			0				0.6999999999999999556				0		nan	0											0	cloud	wind	Planet1A.png	Ship1A.png	blank.png	blank.png		0
6.6.1	mac	0	2024-01-16	15:14:04	1	ATT	1	experiment	2	getValueVector	3440		0		1	1	1	1	1	no erasure	no erasure		1		0	0	121	15	481	6520		0			0	0	2		0			0				0.6999999999999999556				0		nan	0											0	cloud	wind	Planet1A.png	Ship1A.png	blank.png	blank.png		0
6.6.1	mac	0	2024-01-16	15:14:04	1	ATT	1	experiment	2	getValueVector	3440		0		1	1	1	1	1	no erasure	no erasure		1		0	0	122	15	481	6520		0			0	0	2		0			0				0.6999999999999999556				0		nan	0											0	cloud	wind	Planet1A.png	Ship1A.png	blank.png	blank.png		0
6.6.1	mac	0	2024-01-16	15:14:04	1	ATT	1	experiment	2	getValueVector	3440		0		1	1	1	1	1	no erasure	no erasure		1		0	0	123	15	481	6520		0			0	0	2		0			0				0.6999999999999999556				0		nan	0											0	cloud	wind	Planet1A.png	Ship1A.png	blank.png	blank.png		0
6.6.1	mac	0	2024-01-16	15:14:04	1	ATT	1	experiment	2	getValueVector	3440		0		1	1	1	1	1	no erasure	no erasure		1		0	0	124	15	481	6520		0			0	0	2		0			0				0.6999999999999999556				0		nan	0											0	cloud	wind	Planet1A.png	Ship1A.png	blank.png	blank.png		0
6.6.1	mac	0	2024-01-16	15:14:04	1	ATT	1	experiment	2	getValueVector	3440		0		1	1	1	1	1	no erasure	no erasure		1		0	0	125	15	481	6520		0			0	0	2		0			0				0.6999999999999999556				0		nan	0											0	cloud	wind	Planet1A.png	Ship1A.png	blank.png	blank.png		0
6.6.1	mac	0	2024-01-16	15:14:04	1	ATT	1	experiment	2	getValueVector	3440		0		1	1	1	1	1	no erasure	no erasure		1		0	0	126	14	481	6520		0			0	0	2		0			0				0.6999999999999999556				0		nan	0											0	cloud	wind	Planet1A.png	Ship1A.png	blank.png	blank.png		0
6.6.1	mac	0	2024-01-16	15:14:04	1	ATT	1	experiment	2	getValueVector	3440		0		1	1	1	1	1	no erasure	no erasure		1		0	0	127	14	481	6520		0			0	0	2		0			0				0.6999999999999999556				0		nan	0											0	cloud	wind	Planet1A.png	Ship1A.png	blank.png	blank.png		0
6.6.1	mac	0	2024-01-16	15:14:04	1	ATT	1	experiment	2	getValueVector	3440		0		1	1	1	1	1	no erasure	no erasure		1		0	0	128	14	481	6520		0			0	0	2		0			0				0.6999999999999999556				0		nan	0											0	cloud	wind	Planet1A.png	Ship1A.png	blank.png	blank.png		0
6.6.1	mac	0	2024-01-16	15:14:04	1	ATT	1	experiment	2	getValueVector	3440		0		1	1	1	1	1	no erasure	no erasure		1		0	0	129	14	481	6520		0			0	0	2		0			0				0.6999999999999999556				0		nan	0											0	cloud	wind	Planet1A.png	Ship1A.png	blank.png	blank.png		0
6.6.1	mac	0	2024-01-16	15:14:04	1	ATT	1	experiment	2	getValueVector	3440		0		1	1	1	1	1	no erasure	no erasure		1		0	0	130	13	481	6520		0			0	0	2		0			0				0.6999999999999999556				0		nan	0											0	cloud	wind	Planet1A.png	Ship1A.png	blank.png	blank.png		0
6.6.1	mac	0	2024-01-16	15:14:04	1	ATT	1	experiment	2	getValueVector	3440		0		1	1	1	1	1	no erasure	no erasure		1		0	0	131	13	481	6520		0			0	0	2		0			0				0.6999999999999999556				0		nan	0											0	cloud	wind	Planet1A.png	Ship1A.png	blank.png	blank.png		0
6.6.1	mac	0	2024-01-16	15:14:04	1	ATT	1	experiment	2	getValueVector	3440		0		1	1	1	1	1	no erasure	no erasure		1		0	0	132	13	481	6520		0			0	0	2		0			0				0.6999999999999999556				0		nan	0											0	cloud	wind	Planet1A.png	Ship1A.png	blank.png	blank.png		0
6.6.1	mac	0	2024-01-16	15:14:04	1	ATT	1	experiment	2	getValueVector	3440		0		1	1	1	1	1	no erasure	no erasure		1		0	0	133	13	481	6520		0			0	0	2		0			0				0.6999999999999999556				0		nan	0											0	cloud	wind	Planet1A.png	Ship1A.png	blank.png	blank.png		0
6.6.1	mac	0	2024-01-16	15:14:04	1	ATT	1	experiment	2	getValueVector	3440		0		1	1	1	1	1	no erasure	no erasure		1		0	0	134	12	481	6520		0			0	0	2		0			0				0.6999999999999999556				0		nan	0											0	cloud	wind	Planet1A.png	Ship1A.png	blank.png	blank.png		0
6.6.1	mac	0	2024-01-16	15:14:04	1	ATT	1	experiment	2	getValueVector	3440		0		1	1	1	1	1	no erasure	no erasure		1		0	0	135	12	481	6520		0			0	0	2		0			0				0.6999999999999999556				0		nan	0											0	cloud	wind	Planet1A.png	Ship1A.png	blank.png	blank.png		0
6.6.1	mac	0	2024-01-16	15:14:04	1	ATT	1	experiment	2	getValueVector	3440		0		1	1	1	1	1	no erasure	no erasure		1		0	0	136	12	481	6520		0			0	0	2		0			0				0.6999999999999999556				0		nan	0											0	cloud	wind	Planet1A.png	Ship1A.png	blank.png	blank.png		0
6.6.1	mac	0	2024-01-16	15:14:04	1	ATT	1	experiment	2	getValueVector	3440		0		1	1	1	1	1	no erasure	no erasure		1		0	0	137	11	481	6520		0			0	0	2		0			0				0.6999999999999999556				0		nan	0											0	cloud	wind	Planet1A.png	Ship1A.png	blank.png	blank.png		0
6.6.1	mac	0	2024-01-16	15:14:04	1	ATT	1	experiment	2	getValueVector	3440		0		1	1	1	1	1	no erasure	no erasure		1		0	0	138	11	481	6520		0			0	0	2		0			0				0.6999999999999999556				0		nan	0											0	cloud	wind	Planet1A.png	Ship1A.png	blank.png	blank.png		0
6.6.1	mac	0	2024-01-16	15:14:04	1	ATT	1	experiment	2	getValueVector	3440		0		1	1	1	1	1	no erasure	no erasure		1		0	0	139	10	481	6520		0			0	0	2		0			0				0.6999999999999999556				0		nan	0											0	cloud	wind	Planet1A.png	Ship1A.png	blank.png	blank.png		0
6.6.1	mac	0	2024-01-16	15:14:04	1	ATT	1	experiment	2	getValueVector	3440		0		1	1	1	1	1	no erasure	no erasure		1		0	0	140	10	481	6520		0			0	0	2		0			0				0.6999999999999999556				0		nan	0											0	cloud	wind	Planet1A.png	Ship1A.png	blank.png	blank.png		0
6.6.1	mac	0	2024-01-16	15:14:04	1	ATT	1	experiment	2	getValueVector	3440		0		1	1	1	1	1	no erasure	no erasure		1		0	0	141	10	481	6520		0			0	0	2		0			0				0.6999999999999999556				0		nan	0											0	cloud	wind	Planet1A.png	Ship1A.png	blank.png	blank.png		0
6.6.1	mac	0	2024-01-16	15:14:04	1	ATT	1	experiment	2	getValueVector	3440		0		1	1	1	1	1	no erasure	no erasure		1		0	0	142	9	481	6520		0			0	0	2		0			0				0.6999999999999999556				0		nan	0											0	cloud	wind	Planet1A.png	Ship1A.png	blank.png	blank.png		0
6.6.1	mac	0	2024-01-16	15:14:04	1	ATT	1	experiment	2	getValueVector	3440		0		1	1	1	1	1	no erasure	no erasure		1		0	0	143	9	481	6520		0			0	0	2		0			0				0.6999999999999999556				0		nan	0											0	cloud	wind	Planet1A.png	Ship1A.png	blank.png	blank.png		0
6.6.1	mac	0	2024-01-16	15:14:04	1	ATT	1	experiment	2	getValueVector	3440		0		1	1	1	1	1	no erasure	no erasure		1		0	0	144	8	481	6520		0			0	0	2		0			0				0.6999999999999999556				0		nan	0											0	cloud	wind	Planet1A.png	Ship1A.png	blank.png	blank.png		0
6.6.1	mac	0	2024-01-16	15:14:04	1	ATT	1	experiment	2	getValueVector	3440		0		1	1	1	1	1	no erasure	no erasure		1		0	0	145	8	481	6520		0			0	0	2		0			0				0.6999999999999999556				0		nan	0											0	cloud	wind	Planet1A.png	Ship1A.png	blank.png	blank.png		0
6.6.1	mac	0	2024-01-16	15:14:04	1	ATT	1	experiment	2	getValueVector	3440		0		1	1	1	1	1	no erasure	no erasure		1		0	0	146	7	481	6520		0			0	0	2		0			0				0.6999999999999999556				0		nan	0											0	cloud	wind	Planet1A.png	Ship1A.png	blank.png	blank.png		0
6.6.1	mac	0	2024-01-16	15:14:04	1	ATT	1	experiment	2	getValueVector	3440		0		1	1	1	1	1	no erasure	no erasure		1		0	0	147	7	481	6520		0			0	0	2		0			0				0.6999999999999999556				0		nan	0											0	cloud	wind	Planet1A.png	Ship1A.png	blank.png	blank.png		0
6.6.1	mac	0	2024-01-16	15:14:04	1	ATT	1	experiment	2	getValueVector	3440		0		1	1	1	1	1	no erasure	no erasure		1		0	0	148	6	481	6520		0			0	0	2		0			0				0.6999999999999999556				0		nan	0											0	cloud	wind	Planet1A.png	Ship1A.png	blank.png	blank.png		0
6.6.1	mac	0	2024-01-16	15:14:04	1	ATT	1	experiment	2	getValueVector	3440		0		1	1	1	1	1	no erasure	no erasure		1		0	0	149	6	481	6520		0			0	0	2		0			0				0.6999999999999999556				0		nan	0											0	cloud	wind	Planet1A.png	Ship1A.png	blank.png	blank.png		0
6.6.1	mac	0	2024-01-16	15:14:04	1	ATT	1	experiment	2	getValueVector	3440		0		1	1	1	1	1	no erasure	no erasure		1		0	0	150	5	481	6520		0			0	0	2		0			0				0.6999999999999999556				0		nan	0											0	cloud	wind	Planet1A.png	Ship1A.png	blank.png	blank.png		0
6.6.1	mac	0	2024-01-16	15:14:04	1	ATT	1	experiment	2	getValueVector	3440		0		1	1	1	1	1	no erasure	no erasure		1		0	0	151	5	481	6520		0			0	0	2		0			0				0.6999999999999999556				0		nan	0											0	cloud	wind	Planet1A.png	Ship1A.png	blank.png	blank.png		0
6.6.1	mac	0	2024-01-16	15:14:04	1	ATT	1	experiment	2	getValueVector	3440		0		1	1	1	1	1	no erasure	no erasure		1		0	0	152	5	481	6520		0			0	0	2		0			0				0.6999999999999999556				0		nan	0											0	cloud	wind	Planet1A.png	Ship1A.png	blank.png	blank.png		0
6.6.1	mac	0	2024-01-16	15:14:04	1	ATT	1	experiment	2	getValueVector	3440		0		1	1	1	1	1	no erasure	no erasure		1		0	0	153	4	481	6520		0			0	0	2		0			0				0.6999999999999999556				0		nan	0											0	cloud	wind	Planet1A.png	Ship1A.png	blank.png	blank.png		0
6.6.1	mac	0	2024-01-16	15:14:04	1	ATT	1	experiment	2	getValueVector	3440		0		1	1	1	1	1	no erasure	no erasure		1		0	0	154	4	481	6520		0			0	0	2		0			0				0.6999999999999999556				0		nan	0											0	cloud	wind	Planet1A.png	Ship1A.png	blank.png	blank.png		0
6.6.1	mac	0	2024-01-16	15:14:04	1	ATT	1	experiment	2	getValueVector	3440		0		1	1	1	1	1	no erasure	no erasure		1		0	0	155	3	481	6520		0			0	0	2		0			0				0.6999999999999999556				0		nan	0											0	cloud	wind	Planet1A.png	Ship1A.png	blank.png	blank.png		0
6.6.1	mac	0	2024-01-16	15:14:04	1	ATT	1	experiment	2	getValueVector	3440		0		1	1	1	1	1	no erasure	no erasure		1		0	0	156	3	481	6520		0			0	0	2		0			0				0.6999999999999999556				0		nan	0											0	cloud	wind	Planet1A.png	Ship1A.png	blank.png	blank.png		0
6.6.1	mac	0	2024-01-16	15:14:04	1	ATT	1	experiment	2	getValueVector	3440		0		1	1	1	1	1	no erasure	no erasure		1		0	0	157	3	481	6520		0			0	0	2		0			0				0.6999999999999999556				0		nan	0											0	cloud	wind	Planet1A.png	Ship1A.png	blank.png	blank.png		0
6.6.1	mac	0	2024-01-16	15:14:04	1	ATT	1	experiment	2	getValueVector	3440		0		1	1	1	1	1	no erasure	no erasure		1		0	0	158	2	481	6520		0			0	0	2		0			0				0.6999999999999999556				0		nan	0											0	cloud	wind	Planet1A.png	Ship1A.png	blank.png	blank.png		0
6.6.1	mac	0	2024-01-16	15:14:04	1	ATT	1	experiment	2	getValueVector	3440		0		1	1	1	1	1	no erasure	no erasure		1		0	0	159	2	481	6520		0			0	0	2		0			0				0.6999999999999999556				0		nan	0											0	cloud	wind	Planet1A.png	Ship1A.png	blank.png	blank.png		0
6.6.1	mac	0	2024-01-16	15:14:04	1	ATT	1	experiment	2	getValueVector	3440		0		1	1	1	1	1	no erasure	no erasure		1		0	0	160	2	481	6520		0			0	0	2		0			0				0.6999999999999999556				0		nan	0											0	cloud	wind	Planet1A.png	Ship1A.png	blank.png	blank.png		0
6.6.1	mac	0	2024-01-16	15:14:04	1	ATT	1	experiment	2	getValueVector	3440		0		1	1	1	1	1	no erasure	no erasure		1		0	0	161	1	481	6520		0			0	0	2		0			0				0.6999999999999999556				0		nan	0											0	cloud	wind	Planet1A.png	Ship1A.png	blank.png	blank.png		0
6.6.1	mac	0	2024-01-16	15:14:04	1	ATT	1	experiment	2	getValueVector	3440		0		1	1	1	1	1	no erasure	no erasure		1		0	0	162	1	481	6520		0			0	0	2		0			0				0.6999999999999999556				0		nan	0											0	cloud	wind	Planet1A.png	Ship1A.png	blank.png	blank.png		0
6.6.1	mac	0	2024-01-16	15:14:04	1	ATT	1	experiment	2	getValueVector	3440		0		1	1	1	1	1	no erasure	no erasure		1		0	0	163	1	481	6520		0			0	0	2		0			0				0.6999999999999999556				0		nan	0											0	cloud	wind	Planet1A.png	Ship1A.png	blank.png	blank.png		0
6.6.1	mac	0	2024-01-16	15:14:04	1	ATT	1	experiment	2	getValueVector	3440		0		1	1	1	1	1	no erasure	no erasure		1		0	0	164	1	481	6520		0			0	0	2		0			0				0.6999999999999999556				0		nan	0											0	cloud	wind	Planet1A.png	Ship1A.png	blank.png	blank.png		0
6.6.1	mac	0	2024-01-16	15:14:04	1	ATT	1	experiment	2	getValueVector	3440		0		1	1	1	1	1	no erasure	no erasure		1		0	0	165	1	481	6520		0			0	0	2		0			0				0.6999999999999999556				0		nan	0											0	cloud	wind	Planet1A.png	Ship1A.png	blank.png	blank.png		0
6.6.1	mac	0	2024-01-16	15:14:04	1	ATT	1	experiment	2	getValueVector	3440		0		1	1	1	1	1	no erasure	no erasure		1		0	0	166	1	481	6520		0			0	0	2		0			0				0.6999999999999999556				0		nan	0											0	cloud	wind	Planet1A.png	Ship1A.png	blank.png	blank.png		0
6.6.1	mac	0	2024-01-16	15:14:04	1	ATT	1	experiment	2	getValueVector	3440		0		1	1	1	1	1	no erasure	no erasure		1		0	0	167	1	481	6520		0			0	0	2		0			0				0.6999999999999999556				0		nan	0											0	cloud	wind	Planet1A.png	Ship1A.png	blank.png	blank.png		0
6.6.1	mac	0	2024-01-16	15:14:04	1	ATT	1	experiment	2	getValueVector	3440		0		1	1	1	1	1	no erasure	no erasure		1		0	0	168	1	481	6520		0			0	0	2		0			0				0.6999999999999999556				0		nan	0											0	cloud	wind	Planet1A.png	Ship1A.png	blank.png	blank.png		0
6.6.1	mac	0	2024-01-16	15:14:04	1	ATT	1	experiment	2	getValueVector	3440		0		1	1	1	1	1	no erasure	no erasure		1		0	0	169	1	481	6520		0			0	0	2		0			0				0.6999999999999999556				0		nan	0											0	cloud	wind	Planet1A.png	Ship1A.png	blank.png	blank.png		0
6.6.1	mac	0	2024-01-16	15:14:04	1	ATT	1	experiment	2	getValueVector	3440		0		1	1	1	1	1	no erasure	no erasure		1		0	0	170	2	481	6520		0			0	0	2		0			0				0.6999999999999999556				0		nan	0											0	cloud	wind	Planet1A.png	Ship1A.png	blank.png	blank.png		0
6.6.1	mac	0	2024-01-16	15:14:04	1	ATT	1	experiment	2	getValueVector	3440		0		1	1	1	1	1	no erasure	no erasure		1		0	0	171	2	481	6520		0			0	0	2		0			0				0.6999999999999999556				0		nan	0											0	cloud	wind	Planet1A.png	Ship1A.png	blank.png	blank.png		0
6.6.1	mac	0	2024-01-16	15:14:04	1	ATT	1	experiment	2	getValueVector	3440		0		1	1	1	1	1	no erasure	no erasure		1		0	0	172	3	481	6520		0			0	0	2		0			0				0.6999999999999999556				0		nan	0											0	cloud	wind	Planet1A.png	Ship1A.png	blank.png	blank.png		0
6.6.1	mac	0	2024-01-16	15:14:04	1	ATT	1	experiment	2	getValueVector	3440		0		1	1	1	1	1	no erasure	no erasure		1		0	0	173	3	481	6520		0			0	0	2		0			0				0.6999999999999999556				0		nan	0											0	cloud	wind	Planet1A.png	Ship1A.png	blank.png	blank.png		0
6.6.1	mac	0	2024-01-16	15:14:04	1	ATT	1	experiment	2	getValueVector	3440		0		1	1	1	1	1	no erasure	no erasure		1		0	0	174	4	481	6520		0			0	0	2		0			0				0.6999999999999999556				0		nan	0											0	cloud	wind	Planet1A.png	Ship1A.png	blank.png	blank.png		0
6.6.1	mac	0	2024-01-16	15:14:04	1	ATT	1	experiment	2	getValueVector	3440		0		1	1	1	1	1	no erasure	no erasure		1		0	0	175	4	481	6520		0			0	0	2		0			0				0.6999999999999999556				0		nan	0											0	cloud	wind	Planet1A.png	Ship1A.png	blank.png	blank.png		0
6.6.1	mac	0	2024-01-16	15:14:04	1	ATT	1	experiment	2	getValueVector	3440		0		1	1	1	1	1	no erasure	no erasure		1		0	0	176	5	481	6520		0			0	0	2		0			0				0.6999999999999999556				0		nan	0											0	cloud	wind	Planet1A.png	Ship1A.png	blank.png	blank.png		0
6.6.1	mac	0	2024-01-16	15:14:04	1	ATT	1	experiment	2	getValueVector	3440		0		1	1	1	1	1	no erasure	no erasure		1		0	0	177	6	481	6520		0			0	0	2		0			0				0.6999999999999999556				0		nan	0											0	cloud	wind	Planet1A.png	Ship1A.png	blank.png	blank.png		0
6.6.1	mac	0	2024-01-16	15:14:04	1	ATT	1	experiment	2	getValueVector	3440		0		1	1	1	1	1	no erasure	no erasure		1		0	0	178	7	481	6520		0			0	0	2		0			0				0.6999999999999999556				0		nan	0											0	cloud	wind	Planet1A.png	Ship1A.png	blank.png	blank.png		0
6.6.1	mac	0	2024-01-16	15:14:04	1	ATT	1	experiment	2	getValueVector	3440		0		1	1	1	1	1	no erasure	no erasure		1		0	0	179	8	481	6520		0			0	0	2		0			0				0.6999999999999999556				0		nan	0											0	cloud	wind	Planet1A.png	Ship1A.png	blank.png	blank.png		0
6.6.1	mac	0	2024-01-16	15:14:04	1	ATT	1	experiment	2	getValueVector	3440		0		1	1	1	1	1	no erasure	no erasure		1		0	0	180	10	481	6520		0			0	0	2		0			0				0.6999999999999999556				0		nan	0											0	cloud	wind	Planet1A.png	Ship1A.png	blank.png	blank.png		0
6.6.1	mac	0	2024-01-16	15:14:04	1	ATT	1	experiment	2	getValueVector	3440		0		1	1	1	1	1	no erasure	no erasure		1		0	0	181	11	481	6520		0			0	0	2		0			0				0.6999999999999999556				0		nan	0											0	cloud	wind	Planet1A.png	Ship1A.png	blank.png	blank.png		0
6.6.1	mac	0	2024-01-16	15:14:04	1	ATT	1	experiment	2	getValueVector	3440		0		1	1	1	1	1	no erasure	no erasure		1		0	0	182	12	481	6520		0			0	0	2		0			0				0.6999999999999999556				0		nan	0											0	cloud	wind	Planet1A.png	Ship1A.png	blank.png	blank.png		0
6.6.1	mac	0	2024-01-16	15:14:04	1	ATT	1	experiment	2	getValueVector	3440		0		1	1	1	1	1	no erasure	no erasure		1		0	0	183	14	481	6520		0			0	0	2		0			0				0.6999999999999999556				0		nan	0											0	cloud	wind	Planet1A.png	Ship1A.png	blank.png	blank.png		0
6.6.1	mac	0	2024-01-16	15:14:04	1	ATT	1	experiment	2	getValueVector	3440		0		1	1	1	1	1	no erasure	no erasure		1		0	0	184	16	481	6520		0			0	0	2		0			0				0.6999999999999999556				0		nan	0											0	cloud	wind	Planet1A.png	Ship1A.png	blank.png	blank.png		0
6.6.1	mac	0	2024-01-16	15:14:04	1	ATT	1	experiment	2	getValueVector	3440		0		1	1	1	1	1	no erasure	no erasure		1		0	0	185	17	481	6520		0			0	0	2		0			0				0.6999999999999999556				0		nan	0											0	cloud	wind	Planet1A.png	Ship1A.png	blank.png	blank.png		0
6.6.1	mac	0	2024-01-16	15:14:04	1	ATT	1	experiment	2	getValueVector	3440		0		1	1	1	1	1	no erasure	no erasure		1		0	0	186	19	481	6520		0			0	0	2		0			0				0.6999999999999999556				0		nan	0											0	cloud	wind	Planet1A.png	Ship1A.png	blank.png	blank.png		0
6.6.1	mac	0	2024-01-16	15:14:04	1	ATT	1	experiment	2	getValueVector	3440		0		1	1	1	1	1	no erasure	no erasure		1		0	0	187	21	481	6520		0			0	0	2		0			0				0.6999999999999999556				0		nan	0											0	cloud	wind	Planet1A.png	Ship1A.png	blank.png	blank.png		0
6.6.1	mac	0	2024-01-16	15:14:04	1	ATT	1	experiment	2	getValueVector	3440		0		1	1	1	1	1	no erasure	no erasure		1		0	0	188	23	481	6520		0			0	0	2		0			0				0.6999999999999999556				0		nan	0											0	cloud	wind	Planet1A.png	Ship1A.png	blank.png	blank.png		0
6.6.1	mac	0	2024-01-16	15:14:04	1	ATT	1	experiment	2	getValueVector	3440		0		1	1	1	1	1	no erasure	no erasure		1		0	0	189	26	481	6520		0			0	0	2		0			0				0.6999999999999999556				0		nan	0											0	cloud	wind	Planet1A.png	Ship1A.png	blank.png	blank.png		0
6.6.1	mac	0	2024-01-16	15:14:04	1	ATT	1	experiment	2	getValueVector	3440		0		1	1	1	1	1	no erasure	no erasure		1		0	0	190	28	481	6520		0			0	0	2		0			0				0.6999999999999999556				0		nan	0											0	cloud	wind	Planet1A.png	Ship1A.png	blank.png	blank.png		0
6.6.1	mac	0	2024-01-16	15:14:04	1	ATT	1	experiment	2	getValueVector	3440		0		1	1	1	1	1	no erasure	no erasure		1		0	0	191	31	481	6520		0			0	0	2		0			0				0.6999999999999999556				0		nan	0											0	cloud	wind	Planet1A.png	Ship1A.png	blank.png	blank.png		0
6.6.1	mac	0	2024-01-16	15:14:04	1	ATT	1	experiment	2	getValueVector	3440		0		1	1	1	1	1	no erasure	no erasure		1		0	0	192	33	481	6520		0			0	0	2		0			0				0.6999999999999999556				0		nan	0											0	cloud	wind	Planet1A.png	Ship1A.png	blank.png	blank.png		0
6.6.1	mac	0	2024-01-16	15:14:04	1	ATT	1	experiment	2	getValueVector	3440		0		1	1	1	1	1	no erasure	no erasure		1		0	0	193	36	481	6520		0			0	0	2		0			0				0.6999999999999999556				0		nan	0											0	cloud	wind	Planet1A.png	Ship1A.png	blank.png	blank.png		0
6.6.1	mac	0	2024-01-16	15:14:04	1	ATT	1	experiment	2	getValueVector	3440		0		1	1	1	1	1	no erasure	no erasure		1		0	0	194	39	481	6520		0			0	0	2		0			0				0.6999999999999999556				0		nan	0											0	cloud	wind	Planet1A.png	Ship1A.png	blank.png	blank.png		0
6.6.1	mac	0	2024-01-16	15:14:04	1	ATT	1	experiment	2	getValueVector	3440		0		1	1	1	1	1	no erasure	no erasure		1		0	0	195	42	481	6520		0			0	0	2		0			0				0.6999999999999999556				0		nan	0											0	cloud	wind	Planet1A.png	Ship1A.png	blank.png	blank.png		0
6.6.1	mac	0	2024-01-16	15:14:04	1	ATT	1	experiment	2	getValueVector	3440		0		1	1	1	1	1	no erasure	no erasure		1		0	0	196	45	481	6520		0			0	0	2		0			0				0.6999999999999999556				0		nan	0											0	cloud	wind	Planet1A.png	Ship1A.png	blank.png	blank.png		0
6.6.1	mac	0	2024-01-16	15:14:04	1	ATT	1	experiment	2	getValueVector	3440		0		1	1	1	1	1	no erasure	no erasure		1		0	0	197	48	481	6520		0			0	0	2		0			0				0.6999999999999999556				0		nan	0											0	cloud	wind	Planet1A.png	Ship1A.png	blank.png	blank.png		0
6.6.1	mac	0	2024-01-16	15:14:04	1	ATT	1	experiment	2	getValueVector	3440		0		1	1	1	1	1	no erasure	no erasure		1		0	0	198	52	481	6520		0			0	0	2		0			0				0.6999999999999999556				0		nan	0											0	cloud	wind	Planet1A.png	Ship1A.png	blank.png	blank.png		0
6.6.1	mac	0	2024-01-16	15:14:04	1	ATT	1	experiment	2	getValueVector	3440		0		1	1	1	1	1	no erasure	no erasure		1		0	0	199	55	481	6520		0			0	0	2		0			0				0.6999999999999999556				0		nan	0											0	cloud	wind	Planet1A.png	Ship1A.png	blank.png	blank.png		0
6.6.1	mac	0	2024-01-16	15:14:04	1	ATT	1	experiment	2	getValueVector	3440		0		1	1	1	1	1	no erasure	no erasure		1		0	0	200	59	481	6520		0			0	0	2		0			0				0.6999999999999999556				0		nan	0											0	cloud	wind	Planet1A.png	Ship1A.png	blank.png	blank.png		0
6.6.1	mac	0	2024-01-16	15:14:04	1	ATT	1	experiment	2	getValueVector	3440		0		1	1	1	1	1	no erasure	no erasure		1		0	0	201	63	481	6520		0			0	0	2		0			0				0.6999999999999999556				0		nan	0											0	cloud	wind	Planet1A.png	Ship1A.png	blank.png	blank.png		0
6.6.1	mac	0	2024-01-16	15:14:04	1	ATT	1	experiment	2	getValueVector	3440		0		1	1	1	1	1	no erasure	no erasure		1		0	0	202	66	481	6520		0			0	0	2		0			0				0.6999999999999999556				0		nan	0											0	cloud	wind	Planet1A.png	Ship1A.png	blank.png	blank.png		0
6.6.1	mac	0	2024-01-16	15:14:04	1	ATT	1	experiment	2	getValueVector	3440		0		1	1	1	1	1	no erasure	no erasure		1		0	0	203	70	481	6520		0			0	0	2		0			0				0.6999999999999999556				0		nan	0											0	cloud	wind	Planet1A.png	Ship1A.png	blank.png	blank.png		0
6.6.1	mac	0	2024-01-16	15:14:04	1	ATT	1	experiment	2	getValueVector	3440		0		1	1	1	1	1	no erasure	no erasure		1		0	0	204	74	481	6520		0			0	0	2		0			0				0.6999999999999999556				0		nan	0											0	cloud	wind	Planet1A.png	Ship1A.png	blank.png	blank.png		0
6.6.1	mac	0	2024-01-16	15:14:04	1	ATT	1	experiment	2	getValueVector	3440		0		1	1	1	1	1	no erasure	no erasure		1		0	0	205	78	481	6520		0			0	0	2		0			0				0.6999999999999999556				0		nan	0											0	cloud	wind	Planet1A.png	Ship1A.png	blank.png	blank.png		0
6.6.1	mac	0	2024-01-16	15:14:04	1	ATT	1	experiment	2	getValueVector	3440		0		1	1	1	1	1	no erasure	no erasure		1		0	0	206	82	481	6520		0			0	0	2		0			0				0.6999999999999999556				0		nan	0											0	cloud	wind	Planet1A.png	Ship1A.png	blank.png	blank.png		0
6.6.1	mac	0	2024-01-16	15:14:04	1	ATT	1	experiment	2	getValueVector	3440		0		1	1	1	1	1	no erasure	no erasure		1		0	0	207	86	481	6520		0			0	0	2		0			0				0.6999999999999999556				0		nan	0											0	cloud	wind	Planet1A.png	Ship1A.png	blank.png	blank.png		0
6.6.1	mac	0	2024-01-16	15:14:04	1	ATT	1	experiment	2	getValueVector	3440		0		1	1	1	1	1	no erasure	no erasure		1		0	0	208	91	481	6520		0			0	0	2		0			0				0.6999999999999999556				0		nan	0											0	cloud	wind	Planet1A.png	Ship1A.png	blank.png	blank.png		0
6.6.1	mac	0	2024-01-16	15:14:04	1	ATT	1	experiment	2	getValueVector	3440		0		1	1	1	1	1	no erasure	no erasure		1		0	0	209	95	481	6520		0			0	0	2		0			0				0.6999999999999999556				0		nan	0											0	cloud	wind	Planet1A.png	Ship1A.png	blank.png	blank.png		0
6.6.1	mac	0	2024-01-16	15:14:04	1	ATT	1	experiment	2	getValueVector	3440		0		1	1	1	1	1	no erasure	no erasure		1		0	0	210	99	481	6520		0			0	0	2		0			0				0.6999999999999999556				0		nan	0											0	cloud	wind	Planet1A.png	Ship1A.png	blank.png	blank.png		0
6.6.1	mac	0	2024-01-16	15:14:04	1	ATT	1	experiment	2	getValueVector	3440		0		1	1	1	1	1	no erasure	no erasure		1		0	0	211	104	481	6520		0			0	0	2		0			0				0.6999999999999999556				0		nan	0											0	cloud	wind	Planet1A.png	Ship1A.png	blank.png	blank.png		0
6.6.1	mac	0	2024-01-16	15:14:04	1	ATT	1	experiment	2	getValueVector	3440		0		1	1	1	1	1	no erasure	no erasure		1		0	0	212	108	481	6520		0			0	0	2		0			0				0.6999999999999999556				0		nan	0											0	cloud	wind	Planet1A.png	Ship1A.png	blank.png	blank.png		0
6.6.1	mac	0	2024-01-16	15:14:04	1	ATT	1	experiment	2	getValueVector	3440		0		1	1	1	1	1	no erasure	no erasure		1		0	0	213	112	481	6520		0			0	0	2		0			0				0.6999999999999999556				0		nan	0											0	cloud	wind	Planet1A.png	Ship1A.png	blank.png	blank.png		0
6.6.1	mac	0	2024-01-16	15:14:04	1	ATT	1	experiment	2	getValueVector	3440		0		1	1	1	1	1	no erasure	no erasure		1		0	0	214	117	481	6520		0			0	0	2		0			0				0.6999999999999999556				0		nan	0											0	cloud	wind	Planet1A.png	Ship1A.png	blank.png	blank.png		0
6.6.1	mac	0	2024-01-16	15:14:04	1	ATT	1	experiment	2	getValueVector	3440		0		1	1	1	1	1	no erasure	no erasure		1		0	0	215	121	481	6520		0			0	0	2		0			0				0.6999999999999999556				0		nan	0											0	cloud	wind	Planet1A.png	Ship1A.png	blank.png	blank.png		0
6.6.1	mac	0	2024-01-16	15:14:04	1	ATT	1	experiment	2	getValueVector	3440		0		1	1	1	1	1	no erasure	no erasure		1		0	0	216	126	481	6520		0			0	0	2		0			0				0.6999999999999999556				0		nan	0											0	cloud	wind	Planet1A.png	Ship1A.png	blank.png	blank.png		0
6.6.1	mac	0	2024-01-16	15:14:04	1	ATT	1	experiment	2	getValueVector	3440		0		1	1	1	1	1	no erasure	no erasure		1		0	0	217	130	481	6520		0			0	0	2		0			0				0.6999999999999999556				0		nan	0											0	cloud	wind	Planet1A.png	Ship1A.png	blank.png	blank.png		0
6.6.1	mac	0	2024-01-16	15:14:04	1	ATT	1	experiment	2	getValueVector	3440		0		1	1	1	1	1	no erasure	no erasure		1		0	0	218	134	481	6520		0			0	0	2		0			0				0.6999999999999999556				0		nan	0											0	cloud	wind	Planet1A.png	Ship1A.png	blank.png	blank.png		0
6.6.1	mac	0	2024-01-16	15:14:04	1	ATT	1	experiment	2	getValueVector	3440		0		1	1	1	1	1	no erasure	no erasure		1		0	0	219	138	481	6520		0			0	0	2		0			0				0.6999999999999999556				0		nan	0											0	cloud	wind	Planet1A.png	Ship1A.png	blank.png	blank.png		0
6.6.1	mac	0	2024-01-16	15:14:04	1	ATT	1	experiment	2	getValueVector	3440		0		1	1	1	1	1	no erasure	no erasure		1		0	0	220	143	481	6520		0			0	0	2		0			0				0.6999999999999999556				0		nan	0											0	cloud	wind	Planet1A.png	Ship1A.png	blank.png	blank.png		0
6.6.1	mac	0	2024-01-16	15:14:04	1	ATT	1	experiment	2	getValueVector	3440		0		1	1	1	1	1	no erasure	no erasure		1		0	0	221	147	481	6520		0			0	0	2		0			0				0.6999999999999999556				0		nan	0											0	cloud	wind	Planet1A.png	Ship1A.png	blank.png	blank.png		0
6.6.1	mac	0	2024-01-16	15:14:04	1	ATT	1	experiment	2	getValueVector	3440		0		1	1	1	1	1	no erasure	no erasure		1		0	0	222	151	481	6520		0			0	0	2		0			0				0.6999999999999999556				0		nan	0											0	cloud	wind	Planet1A.png	Ship1A.png	blank.png	blank.png		0
6.6.1	mac	0	2024-01-16	15:14:04	1	ATT	1	experiment	2	getValueVector	3440		0		1	1	1	1	1	no erasure	no erasure		1		0	0	223	155	481	6520		0			0	0	2		0			0				0.6999999999999999556				0		nan	0											0	cloud	wind	Planet1A.png	Ship1A.png	blank.png	blank.png		0
6.6.1	mac	0	2024-01-16	15:14:04	1	ATT	1	experiment	2	getValueVector	3440		0		1	1	1	1	1	no erasure	no erasure		1		0	0	224	159	481	6520		0			0	0	2		0			0				0.6999999999999999556				0		nan	0											0	cloud	wind	Planet1A.png	Ship1A.png	blank.png	blank.png		0
6.6.1	mac	0	2024-01-16	15:14:04	1	ATT	1	experiment	2	getValueVector	3440		0		1	1	1	1	1	no erasure	no erasure		1		0	0	225	162	481	6520		0			0	0	2		0			0				0.6999999999999999556				0		nan	0											0	cloud	wind	Planet1A.png	Ship1A.png	blank.png	blank.png		0
6.6.1	mac	0	2024-01-16	15:14:04	1	ATT	1	experiment	2	getValueVector	3440		0		1	1	1	1	1	no erasure	no erasure		1		0	0	226	166	481	6520		0			0	0	2		0			0				0.6999999999999999556				0		nan	0											0	cloud	wind	Planet1A.png	Ship1A.png	blank.png	blank.png		0
6.6.1	mac	0	2024-01-16	15:14:04	1	ATT	1	experiment	2	getValueVector	3440		0		1	1	1	1	1	no erasure	no erasure		1		0	0	227	169	481	6520		0			0	0	2		0			0				0.6999999999999999556				0		nan	0											0	cloud	wind	Planet1A.png	Ship1A.png	blank.png	blank.png		0
6.6.1	mac	0	2024-01-16	15:14:04	1	ATT	1	experiment	2	getValueVector	3440		0		1	1	1	1	1	no erasure	no erasure		1		0	0	228	173	481	6520		0			0	0	2		0			0				0.6999999999999999556				0		nan	0											0	cloud	wind	Planet1A.png	Ship1A.png	blank.png	blank.png		0
6.6.1	mac	0	2024-01-16	15:14:04	1	ATT	1	experiment	2	getValueVector	3440		0		1	1	1	1	1	no erasure	no erasure		1		0	0	229	176	481	6520		0			0	0	2		0			0				0.6999999999999999556				0		nan	0											0	cloud	wind	Planet1A.png	Ship1A.png	blank.png	blank.png		0
6.6.1	mac	0	2024-01-16	15:14:04	1	ATT	1	experiment	2	getValueVector	3440		0		1	1	1	1	1	no erasure	no erasure		1		0	0	230	179	481	6520		0			0	0	2		0			0				0.6999999999999999556				0		nan	0											0	cloud	wind	Planet1A.png	Ship1A.png	blank.png	blank.png		0
6.6.1	mac	0	2024-01-16	15:14:04	1	ATT	1	experiment	2	getValueVector	3440		0		1	1	1	1	1	no erasure	no erasure		1		0	0	231	182	481	6520		0			0	0	2		0			0				0.6999999999999999556				0		nan	0											0	cloud	wind	Planet1A.png	Ship1A.png	blank.png	blank.png		0
6.6.1	mac	0	2024-01-16	15:14:04	1	ATT	1	experiment	2	getValueVector	3440		0		1	1	1	1	1	no erasure	no erasure		1		0	0	232	185	481	6520		0			0	0	2		0			0				0.6999999999999999556				0		nan	0											0	cloud	wind	Planet1A.png	Ship1A.png	blank.png	blank.png		0
6.6.1	mac	0	2024-01-16	15:14:04	1	ATT	1	experiment	2	getValueVector	3440		0		1	1	1	1	1	no erasure	no erasure		1		0	0	233	187	481	6520		0			0	0	2		0			0				0.6999999999999999556				0		nan	0											0	cloud	wind	Planet1A.png	Ship1A.png	blank.png	blank.png		0
6.6.1	mac	0	2024-01-16	15:14:04	1	ATT	1	experiment	2	getValueVector	3440		0		1	1	1	1	1	no erasure	no erasure		1		0	0	234	189	481	6520		0			0	0	2		0			0				0.6999999999999999556				0		nan	0											0	cloud	wind	Planet1A.png	Ship1A.png	blank.png	blank.png		0
6.6.1	mac	0	2024-01-16	15:14:04	1	ATT	1	experiment	2	getValueVector	3440		0		1	1	1	1	1	no erasure	no erasure		1		0	0	235	192	481	6520		0			0	0	2		0			0				0.6999999999999999556				0		nan	0											0	cloud	wind	Planet1A.png	Ship1A.png	blank.png	blank.png		0
6.6.1	mac	0	2024-01-16	15:14:04	1	ATT	1	experiment	2	getValueVector	3440		0		1	1	1	1	1	no erasure	no erasure		1		0	0	236	194	481	6520		0			0	0	2		0			0				0.6999999999999999556				0		nan	0											0	cloud	wind	Planet1A.png	Ship1A.png	blank.png	blank.png		0
6.6.1	mac	0	2024-01-16	15:14:04	1	ATT	1	experiment	2	getValueVector	3440		0		1	1	1	1	1	no erasure	no erasure		1		0	0	237	195	481	6520		0			0	0	2		0			0				0.6999999999999999556				0		nan	0											0	cloud	wind	Planet1A.png	Ship1A.png	blank.png	blank.png		0
6.6.1	mac	0	2024-01-16	15:14:04	1	ATT	1	experiment	2	getValueVector	3440		0		1	1	1	1	1	no erasure	no erasure		1		0	0	238	197	481	6520		0			0	0	2		0			0				0.6999999999999999556				0		nan	0											0	cloud	wind	Planet1A.png	Ship1A.png	blank.png	blank.png		0
6.6.1	mac	0	2024-01-16	15:14:04	1	ATT	1	experiment	2	getValueVector	3440		0		1	1	1	1	1	no erasure	no erasure		1		0	0	239	198	481	6520		0			0	0	2		0			0				0.6999999999999999556				0		nan	0											0	cloud	wind	Planet1A.png	Ship1A.png	blank.png	blank.png		0
6.6.1	mac	0	2024-01-16	15:14:04	1	ATT	1	experiment	2	getValueVector	3440		0		1	1	1	1	1	no erasure	no erasure		1		0	0	240	199	481	6520		0			0	0	2		0			0				0.6999999999999999556				0		nan	0											0	cloud	wind	Planet1A.png	Ship1A.png	blank.png	blank.png		0
6.6.1	mac	0	2024-01-16	15:14:04	1	ATT	1	experiment	2	getValueVector	3440		0		1	1	1	1	1	no erasure	no erasure		1		0	0	241	200	481	6520		0			0	0	2		0			0				0.6999999999999999556				0		nan	0											0	cloud	wind	Planet1A.png	Ship1A.png	blank.png	blank.png		0
6.6.1	mac	0	2024-01-16	15:14:04	1	ATT	1	experiment	2	getValueVector	3440		0		1	1	1	1	1	no erasure	no erasure		1		0	0	242	200	481	6520		0			0	0	2		0			0				0.6999999999999999556				0		nan	0											0	cloud	wind	Planet1A.png	Ship1A.png	blank.png	blank.png		0
6.6.1	mac	0	2024-01-16	15:14:04	1	ATT	1	experiment	2	getValueVector	3440		0		1	1	1	1	1	no erasure	no erasure		1		0	0	243	201	481	6520		0			0	0	2		0			0				0.6999999999999999556				0		nan	0											0	cloud	wind	Planet1A.png	Ship1A.png	blank.png	blank.png		0
6.6.1	mac	0	2024-01-16	15:14:04	1	ATT	1	experiment	2	getValueVector	3440		0		1	1	1	1	1	no erasure	no erasure		1		0	0	244	201	481	6520		0			0	0	2		0			0				0.6999999999999999556				0		nan	0											0	cloud	wind	Planet1A.png	Ship1A.png	blank.png	blank.png		0
6.6.1	mac	0	2024-01-16	15:14:04	1	ATT	1	experiment	2	getValueVector	3440		0		1	1	1	1	1	no erasure	no erasure		1		0	0	245	201	481	6520		0			0	0	2		0			0				0.6999999999999999556				0		nan	0											0	cloud	wind	Planet1A.png	Ship1A.png	blank.png	blank.png		0
6.6.1	mac	0	2024-01-16	15:14:04	1	ATT	1	experiment	2	getValueVector	3440		0		1	1	1	1	1	no erasure	no erasure		1		0	0	246	201	481	6520		0			0	0	2		0			0				0.6999999999999999556				0		nan	0											0	cloud	wind	Planet1A.png	Ship1A.png	blank.png	blank.png		0
6.6.1	mac	0	2024-01-16	15:14:04	1	ATT	1	experiment	2	getValueVector	3440		0		1	1	1	1	1	no erasure	no erasure		1		0	0	247	200	481	6520		0			0	0	2		0			0				0.6999999999999999556				0		nan	0											0	cloud	wind	Planet1A.png	Ship1A.png	blank.png	blank.png		0
6.6.1	mac	0	2024-01-16	15:14:04	1	ATT	1	experiment	2	getValueVector	3440		0		1	1	1	1	1	no erasure	no erasure		1		0	0	248	199	481	6520		0			0	0	2		0			0				0.6999999999999999556				0		nan	0											0	cloud	wind	Planet1A.png	Ship1A.png	blank.png	blank.png		0
6.6.1	mac	0	2024-01-16	15:14:04	1	ATT	1	experiment	2	getValueVector	3440		0		1	1	1	1	1	no erasure	no erasure		1		0	0	249	198	481	6520		0			0	0	2		0			0				0.6999999999999999556				0		nan	0											0	cloud	wind	Planet1A.png	Ship1A.png	blank.png	blank.png		0
6.6.1	mac	0	2024-01-16	15:14:04	1	ATT	1	experiment	2	getValueVector	3440		0		1	1	1	1	1	no erasure	no erasure		1		0	0	250	197	481	6520		0			0	0	2		0			0				0.6999999999999999556				0		nan	0											0	cloud	wind	Planet1A.png	Ship1A.png	blank.png	blank.png		0
6.6.1	mac	0	2024-01-16	15:14:04	1	ATT	1	experiment	2	getValueVector	3440		0		1	1	1	1	1	no erasure	no erasure		1		0	0	251	196	481	6520		0			0	0	2		0			0				0.6999999999999999556				0		nan	0											0	cloud	wind	Planet1A.png	Ship1A.png	blank.png	blank.png		0
6.6.1	mac	0	2024-01-16	15:14:04	1	ATT	1	experiment	2	getValueVector	3440		0		1	1	1	1	1	no erasure	no erasure		1		0	0	252	194	481	6520		0			0	0	2		0			0				0.6999999999999999556				0		nan	0											0	cloud	wind	Planet1A.png	Ship1A.png	blank.png	blank.png		0
6.6.1	mac	0	2024-01-16	15:14:04	1	ATT	1	experiment	2	getValueVector	3440		0		1	1	1	1	1	no erasure	no erasure		1		0	0	253	192	481	6520		0			0	0	2		0			0				0.6999999999999999556				0		nan	0											0	cloud	wind	Planet1A.png	Ship1A.png	blank.png	blank.png		0
6.6.1	mac	0	2024-01-16	15:14:04	1	ATT	1	experiment	2	getValueVector	3440		0		1	1	1	1	1	no erasure	no erasure		1		0	0	254	190	481	6520		0			0	0	2		0			0				0.6999999999999999556				0		nan	0											0	cloud	wind	Planet1A.png	Ship1A.png	blank.png	blank.png		0
6.6.1	mac	0	2024-01-16	15:14:04	1	ATT	1	experiment	2	getValueVector	3440		0		1	1	1	1	1	no erasure	no erasure		1		0	0	255	188	481	6520		0			0	0	2		0			0				0.6999999999999999556				0		nan	0											0	cloud	wind	Planet1A.png	Ship1A.png	blank.png	blank.png		0
6.6.1	mac	0	2024-01-16	15:14:04	1	ATT	1	experiment	2	getValueVector	3440		0		1	1	1	1	1	no erasure	no erasure		1		0	0	256	186	481	6520		0			0	0	2		0			0				0.6999999999999999556				0		nan	0											0	cloud	wind	Planet1A.png	Ship1A.png	blank.png	blank.png		0
6.6.1	mac	0	2024-01-16	15:14:04	1	ATT	1	experiment	2	getValueVector	3440		0		1	1	1	1	1	no erasure	no erasure		1		0	0	257	183	481	6520		0			0	0	2		0			0				0.6999999999999999556				0		nan	0											0	cloud	wind	Planet1A.png	Ship1A.png	blank.png	blank.png		0
6.6.1	mac	0	2024-01-16	15:14:04	1	ATT	1	experiment	2	getValueVector	3440		0		1	1	1	1	1	no erasure	no erasure		1		0	0	258	181	481	6520		0			0	0	2		0			0				0.6999999999999999556				0		nan	0											0	cloud	wind	Planet1A.png	Ship1A.png	blank.png	blank.png		0
6.6.1	mac	0	2024-01-16	15:14:04	1	ATT	1	experiment	2	getValueVector	3440		0		1	1	1	1	1	no erasure	no erasure		1		0	0	259	178	481	6520		0			0	0	2		0			0				0.6999999999999999556				0		nan	0											0	cloud	wind	Planet1A.png	Ship1A.png	blank.png	blank.png		0
6.6.1	mac	0	2024-01-16	15:14:04	1	ATT	1	experiment	2	getValueVector	3440		0		1	1	1	1	1	no erasure	no erasure		1		0	0	260	175	481	6520		0			0	0	2		0			0				0.6999999999999999556				0		nan	0											0	cloud	wind	Planet1A.png	Ship1A.png	blank.png	blank.png		0
6.6.1	mac	0	2024-01-16	15:14:04	1	ATT	1	experiment	2	getValueVector	3440		0		1	1	1	1	1	no erasure	no erasure		1		0	0	261	172	481	6520		0			0	0	2		0			0				0.6999999999999999556				0		nan	0											0	cloud	wind	Planet1A.png	Ship1A.png	blank.png	blank.png		0
6.6.1	mac	0	2024-01-16	15:14:04	1	ATT	1	experiment	2	getValueVector	3440		0		1	1	1	1	1	no erasure	no erasure		1		0	0	262	168	481	6520		0			0	0	2		0			0				0.6999999999999999556				0		nan	0											0	cloud	wind	Planet1A.png	Ship1A.png	blank.png	blank.png		0
6.6.1	mac	0	2024-01-16	15:14:04	1	ATT	1	experiment	2	getValueVector	3440		0		1	1	1	1	1	no erasure	no erasure		1		0	0	263	165	481	6520		0			0	0	2		0			0				0.6999999999999999556				0		nan	0											0	cloud	wind	Planet1A.png	Ship1A.png	blank.png	blank.png		0
6.6.1	mac	0	2024-01-16	15:14:04	1	ATT	1	experiment	2	getValueVector	3440		0		1	1	1	1	1	no erasure	no erasure		1		0	0	264	162	481	6520		0			0	0	2		0			0				0.6999999999999999556				0		nan	0											0	cloud	wind	Planet1A.png	Ship1A.png	blank.png	blank.png		0
6.6.1	mac	0	2024-01-16	15:14:04	1	ATT	1	experiment	2	getValueVector	3440		0		1	1	1	1	1	no erasure	no erasure		1		0	0	265	158	481	6520		0			0	0	2		0			0				0.6999999999999999556				0		nan	0											0	cloud	wind	Planet1A.png	Ship1A.png	blank.png	blank.png		0
6.6.1	mac	0	2024-01-16	15:14:04	1	ATT	1	experiment	2	getValueVector	3440		0		1	1	1	1	1	no erasure	no erasure		1		0	0	266	154	481	6520		0			0	0	2		0			0				0.6999999999999999556				0		nan	0											0	cloud	wind	Planet1A.png	Ship1A.png	blank.png	blank.png		0
6.6.1	mac	0	2024-01-16	15:14:04	1	ATT	1	experiment	2	getValueVector	3440		0		1	1	1	1	1	no erasure	no erasure		1		0	0	267	151	481	6520		0			0	0	2		0			0				0.6999999999999999556				0		nan	0											0	cloud	wind	Planet1A.png	Ship1A.png	blank.png	blank.png		0
6.6.1	mac	0	2024-01-16	15:14:04	1	ATT	1	experiment	2	getValueVector	3440		0		1	1	1	1	1	no erasure	no erasure		1		0	0	268	147	481	6520		0			0	0	2		0			0				0.6999999999999999556				0		nan	0											0	cloud	wind	Planet1A.png	Ship1A.png	blank.png	blank.png		0
6.6.1	mac	0	2024-01-16	15:14:04	1	ATT	1	experiment	2	getValueVector	3440		0		1	1	1	1	1	no erasure	no erasure		1		0	0	269	143	481	6520		0			0	0	2		0			0				0.6999999999999999556				0		nan	0											0	cloud	wind	Planet1A.png	Ship1A.png	blank.png	blank.png		0
6.6.1	mac	0	2024-01-16	15:14:04	1	ATT	1	experiment	2	getValueVector	3440		0		1	1	1	1	1	no erasure	no erasure		1		0	0	270	139	481	6520		0			0	0	2		0			0				0.6999999999999999556				0		nan	0											0	cloud	wind	Planet1A.png	Ship1A.png	blank.png	blank.png		0
6.6.1	mac	0	2024-01-16	15:14:04	1	ATT	1	experiment	2	getValueVector	3440		0		1	1	1	1	1	no erasure	no erasure		1		0	0	271	135	481	6520		0			0	0	2		0			0				0.6999999999999999556				0		nan	0											0	cloud	wind	Planet1A.png	Ship1A.png	blank.png	blank.png		0
6.6.1	mac	0	2024-01-16	15:14:04	1	ATT	1	experiment	2	getValueVector	3440		0		1	1	1	1	1	no erasure	no erasure		1		0	0	272	131	481	6520		0			0	0	2		0			0				0.6999999999999999556				0		nan	0											0	cloud	wind	Planet1A.png	Ship1A.png	blank.png	blank.png		0
6.6.1	mac	0	2024-01-16	15:14:04	1	ATT	1	experiment	2	getValueVector	3440		0		1	1	1	1	1	no erasure	no erasure		1		0	0	273	128	481	6520		0			0	0	2		0			0				0.6999999999999999556				0		nan	0											0	cloud	wind	Planet1A.png	Ship1A.png	blank.png	blank.png		0
6.6.1	mac	0	2024-01-16	15:14:04	1	ATT	1	experiment	2	getValueVector	3440		0		1	1	1	1	1	no erasure	no erasure		1		0	0	274	124	481	6520		0			0	0	2		0			0				0.6999999999999999556				0		nan	0											0	cloud	wind	Planet1A.png	Ship1A.png	blank.png	blank.png		0
6.6.1	mac	0	2024-01-16	15:14:04	1	ATT	1	experiment	2	getValueVector	3440		0		1	1	1	1	1	no erasure	no erasure		1		0	0	275	120	481	6520		0			0	0	2		0			0				0.6999999999999999556				0		nan	0											0	cloud	wind	Planet1A.png	Ship1A.png	blank.png	blank.png		0
6.6.1	mac	0	2024-01-16	15:14:04	1	ATT	1	experiment	2	getValueVector	3440		0		1	1	1	1	1	no erasure	no erasure		1		0	0	276	116	481	6520		0			0	0	2		0			0				0.6999999999999999556				0		nan	0											0	cloud	wind	Planet1A.png	Ship1A.png	blank.png	blank.png		0
6.6.1	mac	0	2024-01-16	15:14:04	1	ATT	1	experiment	2	getValueVector	3440		0		1	1	1	1	1	no erasure	no erasure		1		0	0	277	112	481	6520		0			0	0	2		0			0				0.6999999999999999556				0		nan	0											0	cloud	wind	Planet1A.png	Ship1A.png	blank.png	blank.png		0
6.6.1	mac	0	2024-01-16	15:14:04	1	ATT	1	experiment	2	getValueVector	3440		0		1	1	1	1	1	no erasure	no erasure		1		0	0	278	108	481	6520		0			0	0	2		0			0				0.6999999999999999556				0		nan	0											0	cloud	wind	Planet1A.png	Ship1A.png	blank.png	blank.png		0
6.6.1	mac	0	2024-01-16	15:14:04	1	ATT	1	experiment	2	getValueVector	3440		0		1	1	1	1	1	no erasure	no erasure		1		0	0	279	104	481	6520		0			0	0	2		0			0				0.6999999999999999556				0		nan	0											0	cloud	wind	Planet1A.png	Ship1A.png	blank.png	blank.png		0
6.6.1	mac	0	2024-01-16	15:14:04	1	ATT	1	experiment	2	getValueVector	3440		0		1	1	1	1	1	no erasure	no erasure		1		0	0	280	101	481	6520		0			0	0	2		0			0				0.6999999999999999556				0		nan	0											0	cloud	wind	Planet1A.png	Ship1A.png	blank.png	blank.png		0
6.6.1	mac	0	2024-01-16	15:14:04	1	ATT	1	experiment	2	getValueVector	3440		0		1	1	1	1	1	no erasure	no erasure		1		0	0	281	97	481	6520		0			0	0	2		0			0				0.6999999999999999556				0		nan	0											0	cloud	wind	Planet1A.png	Ship1A.png	blank.png	blank.png		0
6.6.1	mac	0	2024-01-16	15:14:04	1	ATT	1	experiment	2	getValueVector	3440		0		1	1	1	1	1	no erasure	no erasure		1		0	0	282	93	481	6520		0			0	0	2		0			0				0.6999999999999999556				0		nan	0											0	cloud	wind	Planet1A.png	Ship1A.png	blank.png	blank.png		0
6.6.1	mac	0	2024-01-16	15:14:04	1	ATT	1	experiment	2	getValueVector	3440		0		1	1	1	1	1	no erasure	no erasure		1		0	0	283	90	481	6520		0			0	0	2		0			0				0.6999999999999999556				0		nan	0											0	cloud	wind	Planet1A.png	Ship1A.png	blank.png	blank.png		0
6.6.1	mac	0	2024-01-16	15:14:04	1	ATT	1	experiment	2	getValueVector	3440		0		1	1	1	1	1	no erasure	no erasure		1		0	0	284	86	481	6520		0			0	0	2		0			0				0.6999999999999999556				0		nan	0											0	cloud	wind	Planet1A.png	Ship1A.png	blank.png	blank.png		0
6.6.1	mac	0	2024-01-16	15:14:04	1	ATT	1	experiment	2	getValueVector	3440		0		1	1	1	1	1	no erasure	no erasure		1		0	0	285	83	481	6520		0			0	0	2		0			0				0.6999999999999999556				0		nan	0											0	cloud	wind	Planet1A.png	Ship1A.png	blank.png	blank.png		0
6.6.1	mac	0	2024-01-16	15:14:04	1	ATT	1	experiment	2	getValueVector	3440		0		1	1	1	1	1	no erasure	no erasure		1		0	0	286	80	481	6520		0			0	0	2		0			0				0.6999999999999999556				0		nan	0											0	cloud	wind	Planet1A.png	Ship1A.png	blank.png	blank.png		0
6.6.1	mac	0	2024-01-16	15:14:04	1	ATT	1	experiment	2	getValueVector	3440		0		1	1	1	1	1	no erasure	no erasure		1		0	0	287	76	481	6520		0			0	0	2		0			0				0.6999999999999999556				0		nan	0											0	cloud	wind	Planet1A.png	Ship1A.png	blank.png	blank.png		0
6.6.1	mac	0	2024-01-16	15:14:04	1	ATT	1	experiment	2	getValueVector	3440		0		1	1	1	1	1	no erasure	no erasure		1		0	0	288	73	481	6520		0			0	0	2		0			0				0.6999999999999999556				0		nan	0											0	cloud	wind	Planet1A.png	Ship1A.png	blank.png	blank.png		0
6.6.1	mac	0	2024-01-16	15:14:04	1	ATT	1	experiment	2	getValueVector	3440		0		1	1	1	1	1	no erasure	no erasure		1		0	0	289	70	481	6520		0			0	0	2		0			0				0.6999999999999999556				0		nan	0											0	cloud	wind	Planet1A.png	Ship1A.png	blank.png	blank.png		0
6.6.1	mac	0	2024-01-16	15:14:04	1	ATT	1	experiment	2	getValueVector	3440		0		1	1	1	1	1	no erasure	no erasure		1		0	0	290	67	481	6520		0			0	0	2		0			0				0.6999999999999999556				0		nan	0											0	cloud	wind	Planet1A.png	Ship1A.png	blank.png	blank.png		0
6.6.1	mac	0	2024-01-16	15:14:04	1	ATT	1	experiment	2	getValueVector	3440		0		1	1	1	1	1	no erasure	no erasure		1		0	0	291	64	481	6520		0			0	0	2		0			0				0.6999999999999999556				0		nan	0											0	cloud	wind	Planet1A.png	Ship1A.png	blank.png	blank.png		0
6.6.1	mac	0	2024-01-16	15:14:04	1	ATT	1	experiment	2	getValueVector	3440		0		1	1	1	1	1	no erasure	no erasure		1		0	0	292	62	481	6520		0			0	0	2		0			0				0.6999999999999999556				0		nan	0											0	cloud	wind	Planet1A.png	Ship1A.png	blank.png	blank.png		0
6.6.1	mac	0	2024-01-16	15:14:04	1	ATT	1	experiment	2	getValueVector	3440		0		1	1	1	1	1	no erasure	no erasure		1		0	0	293	59	481	6520		0			0	0	2		0			0				0.6999999999999999556				0		nan	0											0	cloud	wind	Planet1A.png	Ship1A.png	blank.png	blank.png		0
6.6.1	mac	0	2024-01-16	15:14:04	1	ATT	1	experiment	2	getValueVector	3440		0		1	1	1	1	1	no erasure	no erasure		1		0	0	294	56	481	6520		0			0	0	2		0			0				0.6999999999999999556				0		nan	0											0	cloud	wind	Planet1A.png	Ship1A.png	blank.png	blank.png		0
6.6.1	mac	0	2024-01-16	15:14:04	1	ATT	1	experiment	2	getValueVector	3440		0		1	1	1	1	1	no erasure	no erasure		1		0	0	295	54	481	6520		0			0	0	2		0			0				0.6999999999999999556				0		nan	0											0	cloud	wind	Planet1A.png	Ship1A.png	blank.png	blank.png		0
6.6.1	mac	0	2024-01-16	15:14:04	1	ATT	1	experiment	2	getValueVector	3440		0		1	1	1	1	1	no erasure	no erasure		1		0	0	296	52	481	6520		0			0	0	2		0			0				0.6999999999999999556				0		nan	0											0	cloud	wind	Planet1A.png	Ship1A.png	blank.png	blank.png		0
6.6.1	mac	0	2024-01-16	15:14:04	1	ATT	1	experiment	2	getValueVector	3440		0		1	1	1	1	1	no erasure	no erasure		1		0	0	297	49	481	6520		0			0	0	2		0			0				0.6999999999999999556				0		nan	0											0	cloud	wind	Planet1A.png	Ship1A.png	blank.png	blank.png		0
6.6.1	mac	0	2024-01-16	15:14:04	1	ATT	1	experiment	2	getValueVector	3440		0		1	1	1	1	1	no erasure	no erasure		1		0	0	298	47	481	6520		0			0	0	2		0			0				0.6999999999999999556				0		nan	0											0	cloud	wind	Planet1A.png	Ship1A.png	blank.png	blank.png		0
6.6.1	mac	0	2024-01-16	15:14:04	1	ATT	1	experiment	2	getValueVector	3440		0		1	1	1	1	1	no erasure	no erasure		1		0	0	299	45	481	6520		0			0	0	2		0			0				0.6999999999999999556				0		nan	0											0	cloud	wind	Planet1A.png	Ship1A.png	blank.png	blank.png		0
6.6.1	mac	0	2024-01-16	15:14:04	1	ATT	1	experiment	2	getValueVector	3440		0		1	1	1	1	1	no erasure	no erasure		1		0	0	300	43	481	6520		0			0	0	2		0			0				0.6999999999999999556				0		nan	0											0	cloud	wind	Planet1A.png	Ship1A.png	blank.png	blank.png		0
6.6.1	mac	0	2024-01-16	15:14:04	1	ATT	1	experiment	2	getValueVector	3440		0		1	1	1	1	1	no erasure	no erasure		1		0	0	301	42	481	6520		0			0	0	2		0			0				0.6999999999999999556				0		nan	0											0	cloud	wind	Planet1A.png	Ship1A.png	blank.png	blank.png		0
6.6.1	mac	0	2024-01-16	15:14:04	1	ATT	1	experiment	2	getValueVector	3440		0		1	1	1	1	1	no erasure	no erasure		1		0	0	302	40	481	6520		0			0	0	2		0			0				0.6999999999999999556				0		nan	0											0	cloud	wind	Planet1A.png	Ship1A.png	blank.png	blank.png		0
6.6.1	mac	0	2024-01-16	15:14:04	1	ATT	1	experiment	2	getValueVector	3440		0		1	1	1	1	1	no erasure	no erasure		1		0	0	303	38	481	6520		0			0	0	2		0			0				0.6999999999999999556				0		nan	0											0	cloud	wind	Planet1A.png	Ship1A.png	blank.png	blank.png		0
6.6.1	mac	0	2024-01-16	15:14:04	1	ATT	1	experiment	2	getValueVector	3440		0		1	1	1	1	1	no erasure	no erasure		1		0	0	304	37	481	6520		0			0	0	2		0			0				0.6999999999999999556				0		nan	0											0	cloud	wind	Planet1A.png	Ship1A.png	blank.png	blank.png		0
6.6.1	mac	0	2024-01-16	15:14:04	1	ATT	1	experiment	2	getValueVector	3440		0		1	1	1	1	1	no erasure	no erasure		1		0	0	305	35	481	6520		0			0	0	2		0			0				0.6999999999999999556				0		nan	0											0	cloud	wind	Planet1A.png	Ship1A.png	blank.png	blank.png		0
6.6.1	mac	0	2024-01-16	15:14:04	1	ATT	1	experiment	2	getValueVector	3440		0		1	1	1	1	1	no erasure	no erasure		1		0	0	306	34	481	6520		0			0	0	2		0			0				0.6999999999999999556				0		nan	0											0	cloud	wind	Planet1A.png	Ship1A.png	blank.png	blank.png		0
6.6.1	mac	0	2024-01-16	15:14:04	1	ATT	1	experiment	2	getValueVector	3440		0		1	1	1	1	1	no erasure	no erasure		1		0	0	307	33	481	6520		0			0	0	2		0			0				0.6999999999999999556				0		nan	0											0	cloud	wind	Planet1A.png	Ship1A.png	blank.png	blank.png		0
6.6.1	mac	0	2024-01-16	15:14:04	1	ATT	1	experiment	2	getValueVector	3440		0		1	1	1	1	1	no erasure	no erasure		1		0	0	308	32	481	6520		0			0	0	2		0			0				0.6999999999999999556				0		nan	0											0	cloud	wind	Planet1A.png	Ship1A.png	blank.png	blank.png		0
6.6.1	mac	0	2024-01-16	15:14:04	1	ATT	1	experiment	2	getValueVector	3440		0		1	1	1	1	1	no erasure	no erasure		1		0	0	309	30	481	6520		0			0	0	2		0			0				0.6999999999999999556				0		nan	0											0	cloud	wind	Planet1A.png	Ship1A.png	blank.png	blank.png		0
6.6.1	mac	0	2024-01-16	15:14:04	1	ATT	1	experiment	2	getValueVector	3440		0		1	1	1	1	1	no erasure	no erasure		1		0	0	310	29	481	6520		0			0	0	2		0			0				0.6999999999999999556				0		nan	0											0	cloud	wind	Planet1A.png	Ship1A.png	blank.png	blank.png		0
6.6.1	mac	0	2024-01-16	15:14:04	1	ATT	1	experiment	2	getValueVector	3440		0		1	1	1	1	1	no erasure	no erasure		1		0	0	311	29	481	6520		0			0	0	2		0			0				0.6999999999999999556				0		nan	0											0	cloud	wind	Planet1A.png	Ship1A.png	blank.png	blank.png		0
6.6.1	mac	0	2024-01-16	15:14:04	1	ATT	1	experiment	2	getValueVector	3440		0		1	1	1	1	1	no erasure	no erasure		1		0	0	312	28	481	6520		0			0	0	2		0			0				0.6999999999999999556				0		nan	0											0	cloud	wind	Planet1A.png	Ship1A.png	blank.png	blank.png		0
6.6.1	mac	0	2024-01-16	15:14:04	1	ATT	1	experiment	2	getValueVector	3440		0		1	1	1	1	1	no erasure	no erasure		1		0	0	313	27	481	6520		0			0	0	2		0			0				0.6999999999999999556				0		nan	0											0	cloud	wind	Planet1A.png	Ship1A.png	blank.png	blank.png		0
6.6.1	mac	0	2024-01-16	15:14:04	1	ATT	1	experiment	2	getValueVector	3440		0		1	1	1	1	1	no erasure	no erasure		1		0	0	314	26	481	6520		0			0	0	2		0			0				0.6999999999999999556				0		nan	0											0	cloud	wind	Planet1A.png	Ship1A.png	blank.png	blank.png		0
6.6.1	mac	0	2024-01-16	15:14:04	1	ATT	1	experiment	2	getValueVector	3440		0		1	1	1	1	1	no erasure	no erasure		1		0	0	315	25	481	6520		0			0	0	2		0			0				0.6999999999999999556				0		nan	0											0	cloud	wind	Planet1A.png	Ship1A.png	blank.png	blank.png		0
6.6.1	mac	0	2024-01-16	15:14:04	1	ATT	1	experiment	2	getValueVector	3440		0		1	1	1	1	1	no erasure	no erasure		1		0	0	316	25	481	6520		0			0	0	2		0			0				0.6999999999999999556				0		nan	0											0	cloud	wind	Planet1A.png	Ship1A.png	blank.png	blank.png		0
6.6.1	mac	0	2024-01-16	15:14:04	1	ATT	1	experiment	2	getValueVector	3440		0		1	1	1	1	1	no erasure	no erasure		1		0	0	317	24	481	6520		0			0	0	2		0			0				0.6999999999999999556				0		nan	0											0	cloud	wind	Planet1A.png	Ship1A.png	blank.png	blank.png		0
6.6.1	mac	0	2024-01-16	15:14:04	1	ATT	1	experiment	2	getValueVector	3440		0		1	1	1	1	1	no erasure	no erasure		1		0	0	318	24	481	6520		0			0	0	2		0			0				0.6999999999999999556				0		nan	0											0	cloud	wind	Planet1A.png	Ship1A.png	blank.png	blank.png		0
6.6.1	mac	0	2024-01-16	15:14:04	1	ATT	1	experiment	2	getValueVector	3440		0		1	1	1	1	1	no erasure	no erasure		1		0	0	319	23	481	6520		0			0	0	2		0			0				0.6999999999999999556				0		nan	0											0	cloud	wind	Planet1A.png	Ship1A.png	blank.png	blank.png		0
6.6.1	mac	0	2024-01-16	15:14:04	1	ATT	1	experiment	2	getValueVector	3440		0		1	1	1	1	1	no erasure	no erasure		1		0	0	320	23	481	6520		0			0	0	2		0			0				0.6999999999999999556				0		nan	0											0	cloud	wind	Planet1A.png	Ship1A.png	blank.png	blank.png		0
6.6.1	mac	0	2024-01-16	15:14:04	1	ATT	1	experiment	2	getValueVector	3440		0		1	1	1	1	1	no erasure	no erasure		1		0	0	321	22	481	6520		0			0	0	2		0			0				0.6999999999999999556				0		nan	0											0	cloud	wind	Planet1A.png	Ship1A.png	blank.png	blank.png		0
6.6.1	mac	0	2024-01-16	15:14:04	1	ATT	1	experiment	2	getValueVector	3440		0		1	1	1	1	1	no erasure	no erasure		1		0	0	322	22	481	6520		0			0	0	2		0			0				0.6999999999999999556				0		nan	0											0	cloud	wind	Planet1A.png	Ship1A.png	blank.png	blank.png		0
6.6.1	mac	0	2024-01-16	15:14:04	1	ATT	1	experiment	2	getValueVector	3440		0		1	1	1	1	1	no erasure	no erasure		1		0	0	323	21	481	6520		0			0	0	2		0			0				0.6999999999999999556				0		nan	0											0	cloud	wind	Planet1A.png	Ship1A.png	blank.png	blank.png		0
6.6.1	mac	0	2024-01-16	15:14:04	1	ATT	1	experiment	2	getValueVector	3440		0		1	1	1	1	1	no erasure	no erasure		1		0	0	324	21	481	6520		0			0	0	2		0			0				0.6999999999999999556				0		nan	0											0	cloud	wind	Planet1A.png	Ship1A.png	blank.png	blank.png		0
6.6.1	mac	0	2024-01-16	15:14:04	1	ATT	1	experiment	2	getValueVector	3440		0		1	1	1	1	1	no erasure	no erasure		1		0	0	325	21	481	6520		0			0	0	2		0			0				0.6999999999999999556				0		nan	0											0	cloud	wind	Planet1A.png	Ship1A.png	blank.png	blank.png		0
6.6.1	mac	0	2024-01-16	15:14:04	1	ATT	1	experiment	2	getValueVector	3440		0		1	1	1	1	1	no erasure	no erasure		1		0	0	326	21	481	6520		0			0	0	2		0			0				0.6999999999999999556				0		nan	0											0	cloud	wind	Planet1A.png	Ship1A.png	blank.png	blank.png		0
6.6.1	mac	0	2024-01-16	15:14:04	1	ATT	1	experiment	2	getValueVector	3440		0		1	1	1	1	1	no erasure	no erasure		1		0	0	327	20	481	6520		0			0	0	2		0			0				0.6999999999999999556				0		nan	0											0	cloud	wind	Planet1A.png	Ship1A.png	blank.png	blank.png		0
6.6.1	mac	0	2024-01-16	15:14:04	1	ATT	1	experiment	2	getValueVector	3440		0		1	1	1	1	1	no erasure	no erasure		1		0	0	328	20	481	6520		0			0	0	2		0			0				0.6999999999999999556				0		nan	0											0	cloud	wind	Planet1A.png	Ship1A.png	blank.png	blank.png		0
6.6.1	mac	0	2024-01-16	15:14:04	1	ATT	1	experiment	2	getValueVector	3440		0		1	1	1	1	1	no erasure	no erasure		1		0	0	329	20	481	6520		0			0	0	2		0			0				0.6999999999999999556				0		nan	0											0	cloud	wind	Planet1A.png	Ship1A.png	blank.png	blank.png		0
6.6.1	mac	0	2024-01-16	15:14:04	1	ATT	1	experiment	2	getValueVector	3440		0		1	1	1	1	1	no erasure	no erasure		1		0	0	330	19	481	6520		0			0	0	2		0			0				0.6999999999999999556				0		nan	0											0	cloud	wind	Planet1A.png	Ship1A.png	blank.png	blank.png		0
6.6.1	mac	0	2024-01-16	15:14:04	1	ATT	1	experiment	2	getValueVector	3440		0		1	1	1	1	1	no erasure	no erasure		1		0	0	331	19	481	6520		0			0	0	2		0			0				0.6999999999999999556				0		nan	0											0	cloud	wind	Planet1A.png	Ship1A.png	blank.png	blank.png		0
6.6.1	mac	0	2024-01-16	15:14:04	1	ATT	1	experiment	2	getValueVector	3440		0		1	1	1	1	1	no erasure	no erasure		1		0	0	332	19	481	6520		0			0	0	2		0			0				0.6999999999999999556				0		nan	0											0	cloud	wind	Planet1A.png	Ship1A.png	blank.png	blank.png		0
6.6.1	mac	0	2024-01-16	15:14:04	1	ATT	1	experiment	2	getValueVector	3440		0		1	1	1	1	1	no erasure	no erasure		1		0	0	333	19	481	6520		0			0	0	2		0			0				0.6999999999999999556				0		nan	0											0	cloud	wind	Planet1A.png	Ship1A.png	blank.png	blank.png		0
6.6.1	mac	0	2024-01-16	15:14:04	1	ATT	1	experiment	2	getValueVector	3440		0		1	1	1	1	1	no erasure	no erasure		1		0	0	334	18	481	6520		0			0	0	2		0			0				0.6999999999999999556				0		nan	0											0	cloud	wind	Planet1A.png	Ship1A.png	blank.png	blank.png		0
6.6.1	mac	0	2024-01-16	15:14:04	1	ATT	1	experiment	2	getValueVector	3440		0		1	1	1	1	1	no erasure	no erasure		1		0	0	335	18	481	6520		0			0	0	2		0			0				0.6999999999999999556				0		nan	0											0	cloud	wind	Planet1A.png	Ship1A.png	blank.png	blank.png		0
6.6.1	mac	0	2024-01-16	15:14:04	1	ATT	1	experiment	2	getValueVector	3440		0		1	1	1	1	1	no erasure	no erasure		1		0	0	336	18	481	6520		0			0	0	2		0			0				0.6999999999999999556				0		nan	0											0	cloud	wind	Planet1A.png	Ship1A.png	blank.png	blank.png		0
6.6.1	mac	0	2024-01-16	15:14:04	1	ATT	1	experiment	2	getValueVector	3440		0		1	1	1	1	1	no erasure	no erasure		1		0	0	337	18	481	6520		0			0	0	2		0			0				0.6999999999999999556				0		nan	0											0	cloud	wind	Planet1A.png	Ship1A.png	blank.png	blank.png		0
6.6.1	mac	0	2024-01-16	15:14:04	1	ATT	1	experiment	2	getValueVector	3440		0		1	1	1	1	1	no erasure	no erasure		1		0	0	338	17	481	6520		0			0	0	2		0			0				0.6999999999999999556				0		nan	0											0	cloud	wind	Planet1A.png	Ship1A.png	blank.png	blank.png		0
6.6.1	mac	0	2024-01-16	15:14:04	1	ATT	1	experiment	2	getValueVector	3440		0		1	1	1	1	1	no erasure	no erasure		1		0	0	339	17	481	6520		0			0	0	2		0			0				0.6999999999999999556				0		nan	0											0	cloud	wind	Planet1A.png	Ship1A.png	blank.png	blank.png		0
6.6.1	mac	0	2024-01-16	15:14:04	1	ATT	1	experiment	2	getValueVector	3440		0		1	1	1	1	1	no erasure	no erasure		1		0	0	340	17	481	6520		0			0	0	2		0			0				0.6999999999999999556				0		nan	0											0	cloud	wind	Planet1A.png	Ship1A.png	blank.png	blank.png		0
6.6.1	mac	0	2024-01-16	15:14:04	1	ATT	1	experiment	2	getValueVector	3440		0		1	1	1	1	1	no erasure	no erasure		1		0	0	341	17	481	6520		0			0	0	2		0			0				0.6999999999999999556				0		nan	0											0	cloud	wind	Planet1A.png	Ship1A.png	blank.png	blank.png		0
6.6.1	mac	0	2024-01-16	15:14:04	1	ATT	1	experiment	2	getValueVector	3440		0		1	1	1	1	1	no erasure	no erasure		1		0	0	342	16	481	6520		0			0	0	2		0			0				0.6999999999999999556				0		nan	0											0	cloud	wind	Planet1A.png	Ship1A.png	blank.png	blank.png		0
6.6.1	mac	0	2024-01-16	15:14:04	1	ATT	1	experiment	2	getValueVector	3440		0		1	1	1	1	1	no erasure	no erasure		1		0	0	343	16	481	6520		0			0	0	2		0			0				0.6999999999999999556				0		nan	0											0	cloud	wind	Planet1A.png	Ship1A.png	blank.png	blank.png		0
6.6.1	mac	0	2024-01-16	15:14:04	1	ATT	1	experiment	2	getValueVector	3440		0		1	1	1	1	1	no erasure	no erasure		1		0	0	344	16	481	6520		0			0	0	2		0			0				0.6999999999999999556				0		nan	0											0	cloud	wind	Planet1A.png	Ship1A.png	blank.png	blank.png		0
6.6.1	mac	0	2024-01-16	15:14:04	1	ATT	1	experiment	2	getValueVector	3440		0		1	1	1	1	1	no erasure	no erasure		1		0	0	345	15	481	6520		0			0	0	2		0			0				0.6999999999999999556				0		nan	0											0	cloud	wind	Planet1A.png	Ship1A.png	blank.png	blank.png		0
6.6.1	mac	0	2024-01-16	15:14:04	1	ATT	1	experiment	2	getValueVector	3440		0		1	1	1	1	1	no erasure	no erasure		1		0	0	346	15	481	6520		0			0	0	2		0			0				0.6999999999999999556				0		nan	0											0	cloud	wind	Planet1A.png	Ship1A.png	blank.png	blank.png		0
6.6.1	mac	0	2024-01-16	15:14:04	1	ATT	1	experiment	2	getValueVector	3440		0		1	1	1	1	1	no erasure	no erasure		1		0	0	347	14	481	6520		0			0	0	2		0			0				0.6999999999999999556				0		nan	0											0	cloud	wind	Planet1A.png	Ship1A.png	blank.png	blank.png		0
6.6.1	mac	0	2024-01-16	15:14:04	1	ATT	1	experiment	2	getValueVector	3440		0		1	1	1	1	1	no erasure	no erasure		1		0	0	348	14	481	6520		0			0	0	2		0			0				0.6999999999999999556				0		nan	0											0	cloud	wind	Planet1A.png	Ship1A.png	blank.png	blank.png		0
6.6.1	mac	0	2024-01-16	15:14:04	1	ATT	1	experiment	2	getValueVector	3440		0		1	1	1	1	1	no erasure	no erasure		1		0	0	349	14	481	6520		0			0	0	2		0			0				0.6999999999999999556				0		nan	0											0	cloud	wind	Planet1A.png	Ship1A.png	blank.png	blank.png		0
6.6.1	mac	0	2024-01-16	15:14:04	1	ATT	1	experiment	2	getValueVector	3440		0		1	1	1	1	1	no erasure	no erasure		1		0	0	350	13	481	6520		0			0	0	2		0			0				0.6999999999999999556				0		nan	0											0	cloud	wind	Planet1A.png	Ship1A.png	blank.png	blank.png		0
6.6.1	mac	0	2024-01-16	15:14:04	1	ATT	1	experiment	2	getValueVector	3440		0		1	1	1	1	1	no erasure	no erasure		1		0	0	351	13	481	6520		0			0	0	2		0			0				0.6999999999999999556				0		nan	0											0	cloud	wind	Planet1A.png	Ship1A.png	blank.png	blank.png		0
6.6.1	mac	0	2024-01-16	15:14:04	1	ATT	1	experiment	2	getValueVector	3440		0		1	1	1	1	1	no erasure	no erasure		1		0	0	352	12	481	6520		0			0	0	2		0			0				0.6999999999999999556				0		nan	0											0	cloud	wind	Planet1A.png	Ship1A.png	blank.png	blank.png		0
6.6.1	mac	0	2024-01-16	15:14:04	1	ATT	1	experiment	2	getValueVector	3440		0		1	1	1	1	1	no erasure	no erasure		1		0	0	353	12	481	6520		0			0	0	2		0			0				0.6999999999999999556				0		nan	0											0	cloud	wind	Planet1A.png	Ship1A.png	blank.png	blank.png		0
6.6.1	mac	0	2024-01-16	15:14:04	1	ATT	1	experiment	2	getValueVector	3440		0		1	1	1	1	1	no erasure	no erasure		1		0	0	354	12	481	6520		0			0	0	2		0			0				0.6999999999999999556				0		nan	0											0	cloud	wind	Planet1A.png	Ship1A.png	blank.png	blank.png		0
6.6.1	mac	0	2024-01-16	15:14:04	1	ATT	1	experiment	2	getValueVector	3440		0		1	1	1	1	1	no erasure	no erasure		1		0	0	355	11	481	6520		0			0	0	2		0			0				0.6999999999999999556				0		nan	0											0	cloud	wind	Planet1A.png	Ship1A.png	blank.png	blank.png		0
6.6.1	mac	0	2024-01-16	15:14:04	1	ATT	1	experiment	2	getValueVector	3440		0		1	1	1	1	1	no erasure	no erasure		1		0	0	356	11	481	6520		0			0	0	2		0			0				0.6999999999999999556				0		nan	0											0	cloud	wind	Planet1A.png	Ship1A.png	blank.png	blank.png		0
6.6.1	mac	0	2024-01-16	15:14:04	1	ATT	1	experiment	2	getValueVector	3440		0		1	1	1	1	1	no erasure	no erasure		1		0	0	357	10	481	6520		0			0	0	2		0			0				0.6999999999999999556				0		nan	0											0	cloud	wind	Planet1A.png	Ship1A.png	blank.png	blank.png		0
6.6.1	mac	0	2024-01-16	15:14:04	1	ATT	1	experiment	2	getValueVector	3440		0		1	1	1	1	1	no erasure	no erasure		1		0	0	358	10	481	6520		0			0	0	2		0			0				0.6999999999999999556				0		nan	0											0	cloud	wind	Planet1A.png	Ship1A.png	blank.png	blank.png		0
6.6.1	mac	0	2024-01-16	15:14:04	1	ATT	1	experiment	2	getValueVector	3440		0		1	1	1	1	1	no erasure	no erasure		1		0	0	359	9	481	6520		0			0	0	2		0			0				0.6999999999999999556				0		nan	0											0	cloud	wind	Planet1A.png	Ship1A.png	blank.png	blank.png		0
6.6.1	mac	0	2024-01-16	15:14:04	1	ATT	1	experiment	2	getValueVector	3440		0		1	1	1	1	1	no erasure	no erasure		1		0	0	360	9	481	6520		0			0	0	2		0			0				0.6999999999999999556				0		nan	0											0	cloud	wind	Planet1A.png	Ship1A.png	blank.png	blank.png		0
6.6.1	mac	0	2024-01-16	15:14:04	1	ATT	1	experiment	2	clock	3440	210	1522		1	1	1	1	1	no erasure	no erasure		1		0	0	360	9	481	6520		0			0	0	2		34			0				0.6999999999999999556				0		nan	0											0	cloud	wind	Planet1A.png	Ship1A.png	blank.png	blank.png		0
6.6.1	mac	0	2024-01-16	15:14:04	1	ATT	1	experiment	2	feedback	3440	210	700	860	1	2	1	1	1	no erasure	no erasure		0		0	0	360	9	482	6520		0			0	0	2		34	321.9839999999999804459	4472	185	185	185	0.1951372079074236709	0.6999999999999999556				0		nan	0					232						0	cloud	wind	Planet1A.png	Ship1A.png	Mushroom1A.png	blank.png	0.0554999999999999938	0.0554999999999999938
6.6.1	mac	0	2024-01-16	15:14:04	1	ATT	1	experiment	2	getValueVector	4970	210	0	860	1	2	2	2	2	no erasure	no erasure	no erasure	0		0	0	1	9	482	6520		0			0	0	2		34			185				0.6999999999999999556				1		47.1916666666666699825	201					232						0	cloud	wind	Planet1A.png	Ship1A.png	Mushroom1A.png	blank.png	0.0554999999999999938	0.0554999999999999938
6.6.1	mac	0	2024-01-16	15:14:04	1	ATT	1	experiment	2	getValueVector	4970	210	0	860	1	2	2	2	2	no erasure	no erasure	no erasure	0		0	0	2	9	482	6520		0			0	0	2		34			185				0.6999999999999999556				1		47.1916666666666699825	201					232						0	cloud	wind	Planet1A.png	Ship1A.png	Mushroom1A.png	blank.png	0.0554999999999999938	0.0554999999999999938
6.6.1	mac	0	2024-01-16	15:14:04	1	ATT	1	experiment	2	getValueVector	4970	210	0	860	1	2	2	2	2	no erasure	no erasure	no erasure	0		0	0	3	8	482	6520		0			0	0	2		34			185				0.6999999999999999556				1		47.1916666666666699825	201					232						0	cloud	wind	Planet1A.png	Ship1A.png	Mushroom1A.png	blank.png	0.0554999999999999938	0.0554999999999999938
6.6.1	mac	0	2024-01-16	15:14:04	1	ATT	1	experiment	2	getValueVector	4970	210	0	860	1	2	2	2	2	no erasure	no erasure	no erasure	0		0	0	4	8	482	6520		0			0	0	2		34			185				0.6999999999999999556				1		47.1916666666666699825	201					232						0	cloud	wind	Planet1A.png	Ship1A.png	Mushroom1A.png	blank.png	0.0554999999999999938	0.0554999999999999938
6.6.1	mac	0	2024-01-16	15:14:04	1	ATT	1	experiment	2	getValueVector	4970	210	0	860	1	2	2	2	2	no erasure	no erasure	no erasure	0		0	0	5	7	482	6520		0			0	0	2		34			185				0.6999999999999999556				1		47.1916666666666699825	201					232						0	cloud	wind	Planet1A.png	Ship1A.png	Mushroom1A.png	blank.png	0.0554999999999999938	0.0554999999999999938
6.6.1	mac	0	2024-01-16	15:14:04	1	ATT	1	experiment	2	getValueVector	4970	210	0	860	1	2	2	2	2	no erasure	no erasure	no erasure	0		0	0	6	7	482	6520		0			0	0	2		34			185				0.6999999999999999556				1		47.1916666666666699825	201					232						0	cloud	wind	Planet1A.png	Ship1A.png	Mushroom1A.png	blank.png	0.0554999999999999938	0.0554999999999999938
6.6.1	mac	0	2024-01-16	15:14:04	1	ATT	1	experiment	2	getValueVector	4970	210	0	860	1	2	2	2	2	no erasure	no erasure	no erasure	0		0	0	7	7	482	6520		0			0	0	2		34			185				0.6999999999999999556				1		47.1916666666666699825	201					232						0	cloud	wind	Planet1A.png	Ship1A.png	Mushroom1A.png	blank.png	0.0554999999999999938	0.0554999999999999938
6.6.1	mac	0	2024-01-16	15:14:04	1	ATT	1	experiment	2	getValueVector	4970	210	0	860	1	2	2	2	2	no erasure	no erasure	no erasure	0		0	0	8	6	482	6520		0			0	0	2		34			185				0.6999999999999999556				1		47.1916666666666699825	201					232						0	cloud	wind	Planet1A.png	Ship1A.png	Mushroom1A.png	blank.png	0.0554999999999999938	0.0554999999999999938
6.6.1	mac	0	2024-01-16	15:14:04	1	ATT	1	experiment	2	getValueVector	4970	210	0	860	1	2	2	2	2	no erasure	no erasure	no erasure	0		0	0	9	6	482	6520		0			0	0	2		34			185				0.6999999999999999556				1		47.1916666666666699825	201					232						0	cloud	wind	Planet1A.png	Ship1A.png	Mushroom1A.png	blank.png	0.0554999999999999938	0.0554999999999999938
6.6.1	mac	0	2024-01-16	15:14:04	1	ATT	1	experiment	2	getValueVector	4970	210	0	860	1	2	2	2	2	no erasure	no erasure	no erasure	0		0	0	10	5	482	6520		0			0	0	2		34			185				0.6999999999999999556				1		47.1916666666666699825	201					232						0	cloud	wind	Planet1A.png	Ship1A.png	Mushroom1A.png	blank.png	0.0554999999999999938	0.0554999999999999938
6.6.1	mac	0	2024-01-16	15:14:04	1	ATT	1	experiment	2	getValueVector	4970	210	0	860	1	2	2	2	2	no erasure	no erasure	no erasure	0		0	0	11	5	482	6520		0			0	0	2		34			185				0.6999999999999999556				1		47.1916666666666699825	201					232						0	cloud	wind	Planet1A.png	Ship1A.png	Mushroom1A.png	blank.png	0.0554999999999999938	0.0554999999999999938
6.6.1	mac	0	2024-01-16	15:14:04	1	ATT	1	experiment	2	getValueVector	4970	210	0	860	1	2	2	2	2	no erasure	no erasure	no erasure	0		0	0	12	5	482	6520		0			0	0	2		34			185				0.6999999999999999556				1		47.1916666666666699825	201					232						0	cloud	wind	Planet1A.png	Ship1A.png	Mushroom1A.png	blank.png	0.0554999999999999938	0.0554999999999999938
6.6.1	mac	0	2024-01-16	15:14:04	1	ATT	1	experiment	2	getValueVector	4970	210	0	860	1	2	2	2	2	no erasure	no erasure	no erasure	0		0	0	13	5	482	6520		0			0	0	2		34			185				0.6999999999999999556				1		47.1916666666666699825	201					232						0	cloud	wind	Planet1A.png	Ship1A.png	Mushroom1A.png	blank.png	0.0554999999999999938	0.0554999999999999938
6.6.1	mac	0	2024-01-16	15:14:04	1	ATT	1	experiment	2	getValueVector	4970	210	0	860	1	2	2	2	2	no erasure	no erasure	no erasure	0		0	0	14	4	482	6520		0			0	0	2		34			185				0.6999999999999999556				1		47.1916666666666699825	201					232						0	cloud	wind	Planet1A.png	Ship1A.png	Mushroom1A.png	blank.png	0.0554999999999999938	0.0554999999999999938
6.6.1	mac	0	2024-01-16	15:14:04	1	ATT	1	experiment	2	getValueVector	4970	210	0	860	1	2	2	2	2	no erasure	no erasure	no erasure	0		0	0	15	4	482	6520		0			0	0	2		34			185				0.6999999999999999556				1		47.1916666666666699825	201					232						0	cloud	wind	Planet1A.png	Ship1A.png	Mushroom1A.png	blank.png	0.0554999999999999938	0.0554999999999999938
