build	computer.platform	computer.touch	date	time	subject	group	sessionid	blockcode	blocknum	trialcode	list.ITI.currentvalue	list.preClockFreeze.currentvalue	latency	list.ISI.currentvalue	block	trialCount	trial	run_trial	block_trial	block_type	trial_type	last_block_type	generate_new_erasure	trial_since_erasure_gen	att_index	era_index	x_final	y_final	ITI_index	seed	list.era_loc.currentvalue	has_erasure	list.att_loc.currentvalue	n_clicks	n_clicks_era_only	timeout_block	timeouts_remain	stim_center_deg	startPos	pos_shifted	rt_shifted	mag	inc_rg	inc	rng	freq	choose_stim	erasure_value	current_erasure	curr_min	list.spread.nextvalue	curr_mean	curr_max	new_mean	to_h	to_l	smooth_kernel2	rt_index	erasure_RT	right_index	left_index	stim_left_deg	stim_right_deg	erasure_blocks	attentional_control	local_uncertainty	picture.planet.item.1	picture.animatedCircle.item.1	picture.feedback2.items.1	picture.stim.item.1	Earnings	totalEarnings
6.6.1	mac	0	2024-01-08	17:23:15	1	1	1	experiment	1	getValueVector	1780		0		1	1	1	1	1	erasure	erasure		1	1	0	1	1	108	3841	152	140	1		0	0	0	2	230	0			0				0.6999999999999999556	0	25	25	1		nan	201						140	155	125	215	245	1	wind	cloud	Planet1A.png	Ship1A.png	blank.png	fog0.png		0
6.6.1	mac	0	2024-01-08	17:23:15	1	1	1	experiment	1	getValueVector	1780		0		1	1	1	1	1	erasure	erasure		1	1	0	1	2	111	3841	152	140	1		0	0	0	2	230	0			0				0.6999999999999999556	0	25	25	1		nan	201						140	155	125	215	245	1	wind	cloud	Planet1A.png	Ship1A.png	blank.png	fog0.png		0
6.6.1	mac	0	2024-01-08	17:23:15	1	1	1	experiment	1	getValueVector	1780		0		1	1	1	1	1	erasure	erasure		1	1	0	1	3	113	3841	152	140	1		0	0	0	2	230	0			0				0.6999999999999999556	0	25	25	1		nan	201						140	155	125	215	245	1	wind	cloud	Planet1A.png	Ship1A.png	blank.png	fog0.png		0
6.6.1	mac	0	2024-01-08	17:23:15	1	1	1	experiment	1	getValueVector	1780		0		1	1	1	1	1	erasure	erasure		1	1	0	1	4	116	3841	152	140	1		0	0	0	2	230	0			0				0.6999999999999999556	0	25	25	1		nan	201						140	155	125	215	245	1	wind	cloud	Planet1A.png	Ship1A.png	blank.png	fog0.png		0
6.6.1	mac	0	2024-01-08	17:23:15	1	1	1	experiment	1	getValueVector	1780		0		1	1	1	1	1	erasure	erasure		1	1	0	1	5	119	3841	152	140	1		0	0	0	2	230	0			0				0.6999999999999999556	0	25	25	1		nan	201						140	155	125	215	245	1	wind	cloud	Planet1A.png	Ship1A.png	blank.png	fog0.png		0
6.6.1	mac	0	2024-01-08	17:23:15	1	1	1	experiment	1	getValueVector	1780		0		1	1	1	1	1	erasure	erasure		1	1	0	1	6	121	3841	152	140	1		0	0	0	2	230	0			0				0.6999999999999999556	0	25	25	1		nan	201						140	155	125	215	245	1	wind	cloud	Planet1A.png	Ship1A.png	blank.png	fog0.png		0
6.6.1	mac	0	2024-01-08	17:23:15	1	1	1	experiment	1	getValueVector	1780		0		1	1	1	1	1	erasure	erasure		1	1	0	1	7	124	3841	152	140	1		0	0	0	2	230	0			0				0.6999999999999999556	0	25	25	1		nan	201						140	155	125	215	245	1	wind	cloud	Planet1A.png	Ship1A.png	blank.png	fog0.png		0
6.6.1	mac	0	2024-01-08	17:23:15	1	1	1	experiment	1	getValueVector	1780		0		1	1	1	1	1	erasure	erasure		1	1	0	1	8	127	3841	152	140	1		0	0	0	2	230	0			0				0.6999999999999999556	0	25	25	1		nan	201						140	155	125	215	245	1	wind	cloud	Planet1A.png	Ship1A.png	blank.png	fog0.png		0
6.6.1	mac	0	2024-01-08	17:23:15	1	1	1	experiment	1	getValueVector	1780		0		1	1	1	1	1	erasure	erasure		1	1	0	1	9	129	3841	152	140	1		0	0	0	2	230	0			0				0.6999999999999999556	0	25	25	1		nan	201						140	155	125	215	245	1	wind	cloud	Planet1A.png	Ship1A.png	blank.png	fog0.png		0
6.6.1	mac	0	2024-01-08	17:23:15	1	1	1	experiment	1	getValueVector	1780		0		1	1	1	1	1	erasure	erasure		1	1	0	1	10	132	3841	152	140	1		0	0	0	2	230	0			0				0.6999999999999999556	0	25	25	1		nan	201						140	155	125	215	245	1	wind	cloud	Planet1A.png	Ship1A.png	blank.png	fog0.png		0
6.6.1	mac	0	2024-01-08	17:23:15	1	1	1	experiment	1	getValueVector	1780		0		1	1	1	1	1	erasure	erasure		1	1	0	1	11	135	3841	152	140	1		0	0	0	2	230	0			0				0.6999999999999999556	0	25	25	1		nan	201						140	155	125	215	245	1	wind	cloud	Planet1A.png	Ship1A.png	blank.png	fog0.png		0
6.6.1	mac	0	2024-01-08	17:23:15	1	1	1	experiment	1	getValueVector	1780		0		1	1	1	1	1	erasure	erasure		1	1	0	1	12	138	3841	152	140	1		0	0	0	2	230	0			0				0.6999999999999999556	0	25	25	1		nan	201						140	155	125	215	245	1	wind	cloud	Planet1A.png	Ship1A.png	blank.png	fog0.png		0
6.6.1	mac	0	2024-01-08	17:23:15	1	1	1	experiment	1	getValueVector	1780		0		1	1	1	1	1	erasure	erasure		1	1	0	1	13	141	3841	152	140	1		0	0	0	2	230	0			0				0.6999999999999999556	0	25	25	1		nan	201						140	155	125	215	245	1	wind	cloud	Planet1A.png	Ship1A.png	blank.png	fog0.png		0
6.6.1	mac	0	2024-01-08	17:23:15	1	1	1	experiment	1	getValueVector	1780		0		1	1	1	1	1	erasure	erasure		1	1	0	1	14	143	3841	152	140	1		0	0	0	2	230	0			0				0.6999999999999999556	0	25	25	1		nan	201						140	155	125	215	245	1	wind	cloud	Planet1A.png	Ship1A.png	blank.png	fog0.png		0
6.6.1	mac	0	2024-01-08	17:23:15	1	1	1	experiment	1	getValueVector	1780		0		1	1	1	1	1	erasure	erasure		1	1	0	1	15	146	3841	152	140	1		0	0	0	2	230	0			0				0.6999999999999999556	0	25	25	1		nan	201						140	155	125	215	245	1	wind	cloud	Planet1A.png	Ship1A.png	blank.png	fog0.png		0
6.6.1	mac	0	2024-01-08	17:23:15	1	1	1	experiment	1	getValueVector	1780		0		1	1	1	1	1	erasure	erasure		1	1	0	1	16	149	3841	152	140	1		0	0	0	2	230	0			0				0.6999999999999999556	0	25	25	1		nan	201						140	155	125	215	245	1	wind	cloud	Planet1A.png	Ship1A.png	blank.png	fog0.png		0
6.6.1	mac	0	2024-01-08	17:23:15	1	1	1	experiment	1	getValueVector	1780		0		1	1	1	1	1	erasure	erasure		1	1	0	1	17	152	3841	152	140	1		0	0	0	2	230	0			0				0.6999999999999999556	0	25	25	1		nan	201						140	155	125	215	245	1	wind	cloud	Planet1A.png	Ship1A.png	blank.png	fog0.png		0
6.6.1	mac	0	2024-01-08	17:23:15	1	1	1	experiment	1	getValueVector	1780		0		1	1	1	1	1	erasure	erasure		1	1	0	1	18	154	3841	152	140	1		0	0	0	2	230	0			0				0.6999999999999999556	0	25	25	1		nan	201						140	155	125	215	245	1	wind	cloud	Planet1A.png	Ship1A.png	blank.png	fog0.png		0
6.6.1	mac	0	2024-01-08	17:23:15	1	1	1	experiment	1	getValueVector	1780		0		1	1	1	1	1	erasure	erasure		1	1	0	1	19	157	3841	152	140	1		0	0	0	2	230	0			0				0.6999999999999999556	0	25	25	1		nan	201						140	155	125	215	245	1	wind	cloud	Planet1A.png	Ship1A.png	blank.png	fog0.png		0
6.6.1	mac	0	2024-01-08	17:23:15	1	1	1	experiment	1	getValueVector	1780		0		1	1	1	1	1	erasure	erasure		1	1	0	1	20	160	3841	152	140	1		0	0	0	2	230	0			0				0.6999999999999999556	0	25	25	1		nan	201						140	155	125	215	245	1	wind	cloud	Planet1A.png	Ship1A.png	blank.png	fog0.png		0
6.6.1	mac	0	2024-01-08	17:23:15	1	1	1	experiment	1	getValueVector	1780		0		1	1	1	1	1	erasure	erasure		1	1	0	1	21	162	3841	152	140	1		0	0	0	2	230	0			0				0.6999999999999999556	0	25	25	1		nan	201						140	155	125	215	245	1	wind	cloud	Planet1A.png	Ship1A.png	blank.png	fog0.png		0
6.6.1	mac	0	2024-01-08	17:23:15	1	1	1	experiment	1	getValueVector	1780		0		1	1	1	1	1	erasure	erasure		1	1	0	1	22	165	3841	152	140	1		0	0	0	2	230	0			0				0.6999999999999999556	0	25	25	1		nan	201						140	155	125	215	245	1	wind	cloud	Planet1A.png	Ship1A.png	blank.png	fog0.png		0
6.6.1	mac	0	2024-01-08	17:23:15	1	1	1	experiment	1	getValueVector	1780		0		1	1	1	1	1	erasure	erasure		1	1	0	1	23	168	3841	152	140	1		0	0	0	2	230	0			0				0.6999999999999999556	0	25	25	1		nan	201						140	155	125	215	245	1	wind	cloud	Planet1A.png	Ship1A.png	blank.png	fog0.png		0
6.6.1	mac	0	2024-01-08	17:23:15	1	1	1	experiment	1	getValueVector	1780		0		1	1	1	1	1	erasure	erasure		1	1	0	1	24	170	3841	152	140	1		0	0	0	2	230	0			0				0.6999999999999999556	0	25	25	1		nan	201						140	155	125	215	245	1	wind	cloud	Planet1A.png	Ship1A.png	blank.png	fog0.png		0
6.6.1	mac	0	2024-01-08	17:23:15	1	1	1	experiment	1	getValueVector	1780		0		1	1	1	1	1	erasure	erasure		1	1	0	1	25	173	3841	152	140	1		0	0	0	2	230	0			0				0.6999999999999999556	0	25	25	1		nan	201						140	155	125	215	245	1	wind	cloud	Planet1A.png	Ship1A.png	blank.png	fog0.png		0
6.6.1	mac	0	2024-01-08	17:23:15	1	1	1	experiment	1	getValueVector	1780		0		1	1	1	1	1	erasure	erasure		1	1	0	1	26	175	3841	152	140	1		0	0	0	2	230	0			0				0.6999999999999999556	0	25	25	1		nan	201						140	155	125	215	245	1	wind	cloud	Planet1A.png	Ship1A.png	blank.png	fog0.png		0
6.6.1	mac	0	2024-01-08	17:23:15	1	1	1	experiment	1	getValueVector	1780		0		1	1	1	1	1	erasure	erasure		1	1	0	1	27	177	3841	152	140	1		0	0	0	2	230	0			0				0.6999999999999999556	0	25	25	1		nan	201						140	155	125	215	245	1	wind	cloud	Planet1A.png	Ship1A.png	blank.png	fog0.png		0
6.6.1	mac	0	2024-01-08	17:23:15	1	1	1	experiment	1	getValueVector	1780		0		1	1	1	1	1	erasure	erasure		1	1	0	1	28	179	3841	152	140	1		0	0	0	2	230	0			0				0.6999999999999999556	0	25	25	1		nan	201						140	155	125	215	245	1	wind	cloud	Planet1A.png	Ship1A.png	blank.png	fog0.png		0
6.6.1	mac	0	2024-01-08	17:23:15	1	1	1	experiment	1	getValueVector	1780		0		1	1	1	1	1	erasure	erasure		1	1	0	1	29	182	3841	152	140	1		0	0	0	2	230	0			0				0.6999999999999999556	0	25	25	1		nan	201						140	155	125	215	245	1	wind	cloud	Planet1A.png	Ship1A.png	blank.png	fog0.png		0
6.6.1	mac	0	2024-01-08	17:23:15	1	1	1	experiment	1	getValueVector	1780		0		1	1	1	1	1	erasure	erasure		1	1	0	1	30	184	3841	152	140	1		0	0	0	2	230	0			0				0.6999999999999999556	0	25	25	1		nan	201						140	155	125	215	245	1	wind	cloud	Planet1A.png	Ship1A.png	blank.png	fog0.png		0
6.6.1	mac	0	2024-01-08	17:23:15	1	1	1	experiment	1	getValueVector	1780		0		1	1	1	1	1	erasure	erasure		1	1	0	1	31	186	3841	152	140	1		0	0	0	2	230	0			0				0.6999999999999999556	0	25	25	1		nan	201						140	155	125	215	245	1	wind	cloud	Planet1A.png	Ship1A.png	blank.png	fog0.png		0
6.6.1	mac	0	2024-01-08	17:23:15	1	1	1	experiment	1	getValueVector	1780		0		1	1	1	1	1	erasure	erasure		1	1	0	1	32	187	3841	152	140	1		0	0	0	2	230	0			0				0.6999999999999999556	0	25	25	1		nan	201						140	155	125	215	245	1	wind	cloud	Planet1A.png	Ship1A.png	blank.png	fog0.png		0
6.6.1	mac	0	2024-01-08	17:23:15	1	1	1	experiment	1	getValueVector	1780		0		1	1	1	1	1	erasure	erasure		1	1	0	1	33	189	3841	152	140	1		0	0	0	2	230	0			0				0.6999999999999999556	0	25	25	1		nan	201						140	155	125	215	245	1	wind	cloud	Planet1A.png	Ship1A.png	blank.png	fog0.png		0
6.6.1	mac	0	2024-01-08	17:23:15	1	1	1	experiment	1	getValueVector	1780		0		1	1	1	1	1	erasure	erasure		1	1	0	1	34	191	3841	152	140	1		0	0	0	2	230	0			0				0.6999999999999999556	0	25	25	1		nan	201						140	155	125	215	245	1	wind	cloud	Planet1A.png	Ship1A.png	blank.png	fog0.png		0
6.6.1	mac	0	2024-01-08	17:23:15	1	1	1	experiment	1	getValueVector	1780		0		1	1	1	1	1	erasure	erasure		1	1	0	1	35	192	3841	152	140	1		0	0	0	2	230	0			0				0.6999999999999999556	0	25	25	1		nan	201						140	155	125	215	245	1	wind	cloud	Planet1A.png	Ship1A.png	blank.png	fog0.png		0
6.6.1	mac	0	2024-01-08	17:23:15	1	1	1	experiment	1	getValueVector	1780		0		1	1	1	1	1	erasure	erasure		1	1	0	1	36	194	3841	152	140	1		0	0	0	2	230	0			0				0.6999999999999999556	0	25	25	1		nan	201						140	155	125	215	245	1	wind	cloud	Planet1A.png	Ship1A.png	blank.png	fog0.png		0
6.6.1	mac	0	2024-01-08	17:23:15	1	1	1	experiment	1	getValueVector	1780		0		1	1	1	1	1	erasure	erasure		1	1	0	1	37	195	3841	152	140	1		0	0	0	2	230	0			0				0.6999999999999999556	0	25	25	1		nan	201						140	155	125	215	245	1	wind	cloud	Planet1A.png	Ship1A.png	blank.png	fog0.png		0
6.6.1	mac	0	2024-01-08	17:23:15	1	1	1	experiment	1	getValueVector	1780		0		1	1	1	1	1	erasure	erasure		1	1	0	1	38	196	3841	152	140	1		0	0	0	2	230	0			0				0.6999999999999999556	0	25	25	1		nan	201						140	155	125	215	245	1	wind	cloud	Planet1A.png	Ship1A.png	blank.png	fog0.png		0
6.6.1	mac	0	2024-01-08	17:23:15	1	1	1	experiment	1	getValueVector	1780		0		1	1	1	1	1	erasure	erasure		1	1	0	1	39	197	3841	152	140	1		0	0	0	2	230	0			0				0.6999999999999999556	0	25	25	1		nan	201						140	155	125	215	245	1	wind	cloud	Planet1A.png	Ship1A.png	blank.png	fog0.png		0
6.6.1	mac	0	2024-01-08	17:23:15	1	1	1	experiment	1	getValueVector	1780		0		1	1	1	1	1	erasure	erasure		1	1	0	1	40	198	3841	152	140	1		0	0	0	2	230	0			0				0.6999999999999999556	0	25	25	1		nan	201						140	155	125	215	245	1	wind	cloud	Planet1A.png	Ship1A.png	blank.png	fog0.png		0
6.6.1	mac	0	2024-01-08	17:23:15	1	1	1	experiment	1	getValueVector	1780		0		1	1	1	1	1	erasure	erasure		1	1	0	1	41	199	3841	152	140	1		0	0	0	2	230	0			0				0.6999999999999999556	0	25	25	1		nan	201						140	155	125	215	245	1	wind	cloud	Planet1A.png	Ship1A.png	blank.png	fog0.png		0
6.6.1	mac	0	2024-01-08	17:23:15	1	1	1	experiment	1	getValueVector	1780		0		1	1	1	1	1	erasure	erasure		1	1	0	1	42	200	3841	152	140	1		0	0	0	2	230	0			0				0.6999999999999999556	0	25	25	1		nan	201						140	155	125	215	245	1	wind	cloud	Planet1A.png	Ship1A.png	blank.png	fog0.png		0
6.6.1	mac	0	2024-01-08	17:23:15	1	1	1	experiment	1	getValueVector	1780		0		1	1	1	1	1	erasure	erasure		1	1	0	1	43	200	3841	152	140	1		0	0	0	2	230	0			0				0.6999999999999999556	0	25	25	1		nan	201						140	155	125	215	245	1	wind	cloud	Planet1A.png	Ship1A.png	blank.png	fog0.png		0
6.6.1	mac	0	2024-01-08	17:23:15	1	1	1	experiment	1	getValueVector	1780		0		1	1	1	1	1	erasure	erasure		1	1	0	1	44	201	3841	152	140	1		0	0	0	2	230	0			0				0.6999999999999999556	0	25	25	1		nan	201						140	155	125	215	245	1	wind	cloud	Planet1A.png	Ship1A.png	blank.png	fog0.png		0
6.6.1	mac	0	2024-01-08	17:23:15	1	1	1	experiment	1	getValueVector	1780		0		1	1	1	1	1	erasure	erasure		1	1	0	1	45	201	3841	152	140	1		0	0	0	2	230	0			0				0.6999999999999999556	0	25	25	1		nan	201						140	155	125	215	245	1	wind	cloud	Planet1A.png	Ship1A.png	blank.png	fog0.png		0
6.6.1	mac	0	2024-01-08	17:23:15	1	1	1	experiment	1	getValueVector	1780		0		1	1	1	1	1	erasure	erasure		1	1	0	1	46	201	3841	152	140	1		0	0	0	2	230	0			0				0.6999999999999999556	0	25	25	1		nan	201						140	155	125	215	245	1	wind	cloud	Planet1A.png	Ship1A.png	blank.png	fog0.png		0
6.6.1	mac	0	2024-01-08	17:23:15	1	1	1	experiment	1	getValueVector	1780		0		1	1	1	1	1	erasure	erasure		1	1	0	1	47	201	3841	152	140	1		0	0	0	2	230	0			0				0.6999999999999999556	0	25	25	1		nan	201						140	155	125	215	245	1	wind	cloud	Planet1A.png	Ship1A.png	blank.png	fog0.png		0
6.6.1	mac	0	2024-01-08	17:23:15	1	1	1	experiment	1	getValueVector	1780		0		1	1	1	1	1	erasure	erasure		1	1	0	1	48	201	3841	152	140	1		0	0	0	2	230	0			0				0.6999999999999999556	0	25	25	1		nan	201						140	155	125	215	245	1	wind	cloud	Planet1A.png	Ship1A.png	blank.png	fog0.png		0
6.6.1	mac	0	2024-01-08	17:23:15	1	1	1	experiment	1	getValueVector	1780		0		1	1	1	1	1	erasure	erasure		1	1	0	1	49	201	3841	152	140	1		0	0	0	2	230	0			0				0.6999999999999999556	0	25	25	1		nan	201						140	155	125	215	245	1	wind	cloud	Planet1A.png	Ship1A.png	blank.png	fog0.png		0
6.6.1	mac	0	2024-01-08	17:23:15	1	1	1	experiment	1	getValueVector	1780		0		1	1	1	1	1	erasure	erasure		1	1	0	1	50	200	3841	152	140	1		0	0	0	2	230	0			0				0.6999999999999999556	0	25	25	1		nan	201						140	155	125	215	245	1	wind	cloud	Planet1A.png	Ship1A.png	blank.png	fog0.png		0
6.6.1	mac	0	2024-01-08	17:23:15	1	1	1	experiment	1	getValueVector	1780		0		1	1	1	1	1	erasure	erasure		1	1	0	1	51	200	3841	152	140	1		0	0	0	2	230	0			0				0.6999999999999999556	0	25	25	1		nan	201						140	155	125	215	245	1	wind	cloud	Planet1A.png	Ship1A.png	blank.png	fog0.png		0
6.6.1	mac	0	2024-01-08	17:23:15	1	1	1	experiment	1	getValueVector	1780		0		1	1	1	1	1	erasure	erasure		1	1	0	1	52	199	3841	152	140	1		0	0	0	2	230	0			0				0.6999999999999999556	0	25	25	1		nan	201						140	155	125	215	245	1	wind	cloud	Planet1A.png	Ship1A.png	blank.png	fog0.png		0
6.6.1	mac	0	2024-01-08	17:23:15	1	1	1	experiment	1	getValueVector	1780		0		1	1	1	1	1	erasure	erasure		1	1	0	1	53	198	3841	152	140	1		0	0	0	2	230	0			0				0.6999999999999999556	0	25	25	1		nan	201						140	155	125	215	245	1	wind	cloud	Planet1A.png	Ship1A.png	blank.png	fog0.png		0
6.6.1	mac	0	2024-01-08	17:23:15	1	1	1	experiment	1	getValueVector	1780		0		1	1	1	1	1	erasure	erasure		1	1	0	1	54	197	3841	152	140	1		0	0	0	2	230	0			0				0.6999999999999999556	0	25	25	1		nan	201						140	155	125	215	245	1	wind	cloud	Planet1A.png	Ship1A.png	blank.png	fog0.png		0
6.6.1	mac	0	2024-01-08	17:23:15	1	1	1	experiment	1	getValueVector	1780		0		1	1	1	1	1	erasure	erasure		1	1	0	1	55	196	3841	152	140	1		0	0	0	2	230	0			0				0.6999999999999999556	0	25	25	1		nan	201						140	155	125	215	245	1	wind	cloud	Planet1A.png	Ship1A.png	blank.png	fog0.png		0
6.6.1	mac	0	2024-01-08	17:23:15	1	1	1	experiment	1	getValueVector	1780		0		1	1	1	1	1	erasure	erasure		1	1	0	1	56	195	3841	152	140	1		0	0	0	2	230	0			0				0.6999999999999999556	0	25	25	1		nan	201						140	155	125	215	245	1	wind	cloud	Planet1A.png	Ship1A.png	blank.png	fog0.png		0
6.6.1	mac	0	2024-01-08	17:23:15	1	1	1	experiment	1	getValueVector	1780		0		1	1	1	1	1	erasure	erasure		1	1	0	1	57	194	3841	152	140	1		0	0	0	2	230	0			0				0.6999999999999999556	0	25	25	1		nan	201						140	155	125	215	245	1	wind	cloud	Planet1A.png	Ship1A.png	blank.png	fog0.png		0
6.6.1	mac	0	2024-01-08	17:23:15	1	1	1	experiment	1	getValueVector	1780		0		1	1	1	1	1	erasure	erasure		1	1	0	1	58	192	3841	152	140	1		0	0	0	2	230	0			0				0.6999999999999999556	0	25	25	1		nan	201						140	155	125	215	245	1	wind	cloud	Planet1A.png	Ship1A.png	blank.png	fog0.png		0
6.6.1	mac	0	2024-01-08	17:23:15	1	1	1	experiment	1	getValueVector	1780		0		1	1	1	1	1	erasure	erasure		1	1	0	1	59	191	3841	152	140	1		0	0	0	2	230	0			0				0.6999999999999999556	0	25	25	1		nan	201						140	155	125	215	245	1	wind	cloud	Planet1A.png	Ship1A.png	blank.png	fog0.png		0
6.6.1	mac	0	2024-01-08	17:23:15	1	1	1	experiment	1	getValueVector	1780		0		1	1	1	1	1	erasure	erasure		1	1	0	1	60	189	3841	152	140	1		0	0	0	2	230	0			0				0.6999999999999999556	0	25	25	1		nan	201						140	155	125	215	245	1	wind	cloud	Planet1A.png	Ship1A.png	blank.png	fog0.png		0
6.6.1	mac	0	2024-01-08	17:23:15	1	1	1	experiment	1	getValueVector	1780		0		1	1	1	1	1	erasure	erasure		1	1	0	1	61	187	3841	152	140	1		0	0	0	2	230	0			0				0.6999999999999999556	0	25	25	1		nan	201						140	155	125	215	245	1	wind	cloud	Planet1A.png	Ship1A.png	blank.png	fog0.png		0
6.6.1	mac	0	2024-01-08	17:23:15	1	1	1	experiment	1	getValueVector	1780		0		1	1	1	1	1	erasure	erasure		1	1	0	1	62	186	3841	152	140	1		0	0	0	2	230	0			0				0.6999999999999999556	0	25	25	1		nan	201						140	155	125	215	245	1	wind	cloud	Planet1A.png	Ship1A.png	blank.png	fog0.png		0
6.6.1	mac	0	2024-01-08	17:23:15	1	1	1	experiment	1	getValueVector	1780		0		1	1	1	1	1	erasure	erasure		1	1	0	1	63	184	3841	152	140	1		0	0	0	2	230	0			0				0.6999999999999999556	0	25	25	1		nan	201						140	155	125	215	245	1	wind	cloud	Planet1A.png	Ship1A.png	blank.png	fog0.png		0
6.6.1	mac	0	2024-01-08	17:23:15	1	1	1	experiment	1	getValueVector	1780		0		1	1	1	1	1	erasure	erasure		1	1	0	1	64	182	3841	152	140	1		0	0	0	2	230	0			0				0.6999999999999999556	0	25	25	1		nan	201						140	155	125	215	245	1	wind	cloud	Planet1A.png	Ship1A.png	blank.png	fog0.png		0
6.6.1	mac	0	2024-01-08	17:23:15	1	1	1	experiment	1	getValueVector	1780		0		1	1	1	1	1	erasure	erasure		1	1	0	1	65	180	3841	152	140	1		0	0	0	2	230	0			0				0.6999999999999999556	0	25	25	1		nan	201						140	155	125	215	245	1	wind	cloud	Planet1A.png	Ship1A.png	blank.png	fog0.png		0
6.6.1	mac	0	2024-01-08	17:23:15	1	1	1	experiment	1	getValueVector	1780		0		1	1	1	1	1	erasure	erasure		1	1	0	1	66	177	3841	152	140	1		0	0	0	2	230	0			0				0.6999999999999999556	0	25	25	1		nan	201						140	155	125	215	245	1	wind	cloud	Planet1A.png	Ship1A.png	blank.png	fog0.png		0
6.6.1	mac	0	2024-01-08	17:23:15	1	1	1	experiment	1	getValueVector	1780		0		1	1	1	1	1	erasure	erasure		1	1	0	1	67	175	3841	152	140	1		0	0	0	2	230	0			0				0.6999999999999999556	0	25	25	1		nan	201						140	155	125	215	245	1	wind	cloud	Planet1A.png	Ship1A.png	blank.png	fog0.png		0
6.6.1	mac	0	2024-01-08	17:23:15	1	1	1	experiment	1	getValueVector	1780		0		1	1	1	1	1	erasure	erasure		1	1	0	1	68	173	3841	152	140	1		0	0	0	2	230	0			0				0.6999999999999999556	0	25	25	1		nan	201						140	155	125	215	245	1	wind	cloud	Planet1A.png	Ship1A.png	blank.png	fog0.png		0
6.6.1	mac	0	2024-01-08	17:23:15	1	1	1	experiment	1	getValueVector	1780		0		1	1	1	1	1	erasure	erasure		1	1	0	1	69	171	3841	152	140	1		0	0	0	2	230	0			0				0.6999999999999999556	0	25	25	1		nan	201						140	155	125	215	245	1	wind	cloud	Planet1A.png	Ship1A.png	blank.png	fog0.png		0
6.6.1	mac	0	2024-01-08	17:23:15	1	1	1	experiment	1	getValueVector	1780		0		1	1	1	1	1	erasure	erasure		1	1	0	1	70	168	3841	152	140	1		0	0	0	2	230	0			0				0.6999999999999999556	0	25	25	1		nan	201						140	155	125	215	245	1	wind	cloud	Planet1A.png	Ship1A.png	blank.png	fog0.png		0
6.6.1	mac	0	2024-01-08	17:23:15	1	1	1	experiment	1	getValueVector	1780		0		1	1	1	1	1	erasure	erasure		1	1	0	1	71	166	3841	152	140	1		0	0	0	2	230	0			0				0.6999999999999999556	0	25	25	1		nan	201						140	155	125	215	245	1	wind	cloud	Planet1A.png	Ship1A.png	blank.png	fog0.png		0
6.6.1	mac	0	2024-01-08	17:23:15	1	1	1	experiment	1	getValueVector	1780		0		1	1	1	1	1	erasure	erasure		1	1	0	1	72	163	3841	152	140	1		0	0	0	2	230	0			0				0.6999999999999999556	0	25	25	1		nan	201						140	155	125	215	245	1	wind	cloud	Planet1A.png	Ship1A.png	blank.png	fog0.png		0
6.6.1	mac	0	2024-01-08	17:23:15	1	1	1	experiment	1	getValueVector	1780		0		1	1	1	1	1	erasure	erasure		1	1	0	1	73	161	3841	152	140	1		0	0	0	2	230	0			0				0.6999999999999999556	0	25	25	1		nan	201						140	155	125	215	245	1	wind	cloud	Planet1A.png	Ship1A.png	blank.png	fog0.png		0
6.6.1	mac	0	2024-01-08	17:23:15	1	1	1	experiment	1	getValueVector	1780		0		1	1	1	1	1	erasure	erasure		1	1	0	1	74	158	3841	152	140	1		0	0	0	2	230	0			0				0.6999999999999999556	0	25	25	1		nan	201						140	155	125	215	245	1	wind	cloud	Planet1A.png	Ship1A.png	blank.png	fog0.png		0
6.6.1	mac	0	2024-01-08	17:23:15	1	1	1	experiment	1	getValueVector	1780		0		1	1	1	1	1	erasure	erasure		1	1	0	1	75	156	3841	152	140	1		0	0	0	2	230	0			0				0.6999999999999999556	0	25	25	1		nan	201						140	155	125	215	245	1	wind	cloud	Planet1A.png	Ship1A.png	blank.png	fog0.png		0
6.6.1	mac	0	2024-01-08	17:23:15	1	1	1	experiment	1	getValueVector	1780		0		1	1	1	1	1	erasure	erasure		1	1	0	1	76	153	3841	152	140	1		0	0	0	2	230	0			0				0.6999999999999999556	0	25	25	1		nan	201						140	155	125	215	245	1	wind	cloud	Planet1A.png	Ship1A.png	blank.png	fog0.png		0
6.6.1	mac	0	2024-01-08	17:23:15	1	1	1	experiment	1	getValueVector	1780		0		1	1	1	1	1	erasure	erasure		1	1	0	1	77	151	3841	152	140	1		0	0	0	2	230	0			0				0.6999999999999999556	0	25	25	1		nan	201						140	155	125	215	245	1	wind	cloud	Planet1A.png	Ship1A.png	blank.png	fog0.png		0
6.6.1	mac	0	2024-01-08	17:23:15	1	1	1	experiment	1	getValueVector	1780		0		1	1	1	1	1	erasure	erasure		1	1	0	1	78	148	3841	152	140	1		0	0	0	2	230	0			0				0.6999999999999999556	0	25	25	1		nan	201						140	155	125	215	245	1	wind	cloud	Planet1A.png	Ship1A.png	blank.png	fog0.png		0
6.6.1	mac	0	2024-01-08	17:23:15	1	1	1	experiment	1	getValueVector	1780		0		1	1	1	1	1	erasure	erasure		1	1	0	1	79	146	3841	152	140	1		0	0	0	2	230	0			0				0.6999999999999999556	0	25	25	1		nan	201						140	155	125	215	245	1	wind	cloud	Planet1A.png	Ship1A.png	blank.png	fog0.png		0
6.6.1	mac	0	2024-01-08	17:23:15	1	1	1	experiment	1	getValueVector	1780		0		1	1	1	1	1	erasure	erasure		1	1	0	1	80	143	3841	152	140	1		0	0	0	2	230	0			0				0.6999999999999999556	0	25	25	1		nan	201						140	155	125	215	245	1	wind	cloud	Planet1A.png	Ship1A.png	blank.png	fog0.png		0
6.6.1	mac	0	2024-01-08	17:23:15	1	1	1	experiment	1	getValueVector	1780		0		1	1	1	1	1	erasure	erasure		1	1	0	1	81	140	3841	152	140	1		0	0	0	2	230	0			0				0.6999999999999999556	0	25	25	1		nan	201						140	155	125	215	245	1	wind	cloud	Planet1A.png	Ship1A.png	blank.png	fog0.png		0
6.6.1	mac	0	2024-01-08	17:23:15	1	1	1	experiment	1	getValueVector	1780		0		1	1	1	1	1	erasure	erasure		1	1	0	1	82	138	3841	152	140	1		0	0	0	2	230	0			0				0.6999999999999999556	0	25	25	1		nan	201						140	155	125	215	245	1	wind	cloud	Planet1A.png	Ship1A.png	blank.png	fog0.png		0
6.6.1	mac	0	2024-01-08	17:23:15	1	1	1	experiment	1	getValueVector	1780		0		1	1	1	1	1	erasure	erasure		1	1	0	1	83	135	3841	152	140	1		0	0	0	2	230	0			0				0.6999999999999999556	0	25	25	1		nan	201						140	155	125	215	245	1	wind	cloud	Planet1A.png	Ship1A.png	blank.png	fog0.png		0
6.6.1	mac	0	2024-01-08	17:23:15	1	1	1	experiment	1	getValueVector	1780		0		1	1	1	1	1	erasure	erasure		1	1	0	1	84	133	3841	152	140	1		0	0	0	2	230	0			0				0.6999999999999999556	0	25	25	1		nan	201						140	155	125	215	245	1	wind	cloud	Planet1A.png	Ship1A.png	blank.png	fog0.png		0
6.6.1	mac	0	2024-01-08	17:23:15	1	1	1	experiment	1	getValueVector	1780		0		1	1	1	1	1	erasure	erasure		1	1	0	1	85	130	3841	152	140	1		0	0	0	2	230	0			0				0.6999999999999999556	0	25	25	1		nan	201						140	155	125	215	245	1	wind	cloud	Planet1A.png	Ship1A.png	blank.png	fog0.png		0
6.6.1	mac	0	2024-01-08	17:23:15	1	1	1	experiment	1	getValueVector	1780		0		1	1	1	1	1	erasure	erasure		1	1	0	1	86	127	3841	152	140	1		0	0	0	2	230	0			0				0.6999999999999999556	0	25	25	1		nan	201						140	155	125	215	245	1	wind	cloud	Planet1A.png	Ship1A.png	blank.png	fog0.png		0
6.6.1	mac	0	2024-01-08	17:23:15	1	1	1	experiment	1	getValueVector	1780		0		1	1	1	1	1	erasure	erasure		1	1	0	1	87	125	3841	152	140	1		0	0	0	2	230	0			0				0.6999999999999999556	0	25	25	1		nan	201						140	155	125	215	245	1	wind	cloud	Planet1A.png	Ship1A.png	blank.png	fog0.png		0
6.6.1	mac	0	2024-01-08	17:23:15	1	1	1	experiment	1	getValueVector	1780		0		1	1	1	1	1	erasure	erasure		1	1	0	1	88	122	3841	152	140	1		0	0	0	2	230	0			0				0.6999999999999999556	0	25	25	1		nan	201						140	155	125	215	245	1	wind	cloud	Planet1A.png	Ship1A.png	blank.png	fog0.png		0
6.6.1	mac	0	2024-01-08	17:23:15	1	1	1	experiment	1	getValueVector	1780		0		1	1	1	1	1	erasure	erasure		1	1	0	1	89	120	3841	152	140	1		0	0	0	2	230	0			0				0.6999999999999999556	0	25	25	1		nan	201						140	155	125	215	245	1	wind	cloud	Planet1A.png	Ship1A.png	blank.png	fog0.png		0
6.6.1	mac	0	2024-01-08	17:23:15	1	1	1	experiment	1	getValueVector	1780		0		1	1	1	1	1	erasure	erasure		1	1	0	1	90	117	3841	152	140	1		0	0	0	2	230	0			0				0.6999999999999999556	0	25	25	1		nan	201						140	155	125	215	245	1	wind	cloud	Planet1A.png	Ship1A.png	blank.png	fog0.png		0
6.6.1	mac	0	2024-01-08	17:23:15	1	1	1	experiment	1	getValueVector	1780		0		1	1	1	1	1	erasure	erasure		1	1	0	1	91	115	3841	152	140	1		0	0	0	2	230	0			0				0.6999999999999999556	0	25	25	1		nan	201						140	155	125	215	245	1	wind	cloud	Planet1A.png	Ship1A.png	blank.png	fog0.png		0
6.6.1	mac	0	2024-01-08	17:23:15	1	1	1	experiment	1	getValueVector	1780		0		1	1	1	1	1	erasure	erasure		1	1	0	1	92	112	3841	152	140	1		0	0	0	2	230	0			0				0.6999999999999999556	0	25	25	1		nan	201						140	155	125	215	245	1	wind	cloud	Planet1A.png	Ship1A.png	blank.png	fog0.png		0
6.6.1	mac	0	2024-01-08	17:23:15	1	1	1	experiment	1	getValueVector	1780		0		1	1	1	1	1	erasure	erasure		1	1	0	1	93	110	3841	152	140	1		0	0	0	2	230	0			0				0.6999999999999999556	0	25	25	1		nan	201						140	155	125	215	245	1	wind	cloud	Planet1A.png	Ship1A.png	blank.png	fog0.png		0
6.6.1	mac	0	2024-01-08	17:23:15	1	1	1	experiment	1	getValueVector	1780		0		1	1	1	1	1	erasure	erasure		1	1	0	1	94	108	3841	152	140	1		0	0	0	2	230	0			0				0.6999999999999999556	0	25	25	1		nan	201						140	155	125	215	245	1	wind	cloud	Planet1A.png	Ship1A.png	blank.png	fog0.png		0
6.6.1	mac	0	2024-01-08	17:23:15	1	1	1	experiment	1	getValueVector	1780		0		1	1	1	1	1	erasure	erasure		1	1	0	1	95	105	3841	152	140	1		0	0	0	2	230	0			0				0.6999999999999999556	0	25	25	1		nan	201						140	155	125	215	245	1	wind	cloud	Planet1A.png	Ship1A.png	blank.png	fog0.png		0
6.6.1	mac	0	2024-01-08	17:23:15	1	1	1	experiment	1	getValueVector	1780		0		1	1	1	1	1	erasure	erasure		1	1	0	1	96	103	3841	152	140	1		0	0	0	2	230	0			0				0.6999999999999999556	0	25	25	1		nan	201						140	155	125	215	245	1	wind	cloud	Planet1A.png	Ship1A.png	blank.png	fog0.png		0
6.6.1	mac	0	2024-01-08	17:23:15	1	1	1	experiment	1	getValueVector	1780		0		1	1	1	1	1	erasure	erasure		1	1	0	1	97	101	3841	152	140	1		0	0	0	2	230	0			0				0.6999999999999999556	0	25	25	1		nan	201						140	155	125	215	245	1	wind	cloud	Planet1A.png	Ship1A.png	blank.png	fog0.png		0
6.6.1	mac	0	2024-01-08	17:23:15	1	1	1	experiment	1	getValueVector	1780		0		1	1	1	1	1	erasure	erasure		1	1	0	1	98	98	3841	152	140	1		0	0	0	2	230	0			0				0.6999999999999999556	0	25	25	1		nan	201						140	155	125	215	245	1	wind	cloud	Planet1A.png	Ship1A.png	blank.png	fog0.png		0
6.6.1	mac	0	2024-01-08	17:23:15	1	1	1	experiment	1	getValueVector	1780		0		1	1	1	1	1	erasure	erasure		1	1	0	1	99	96	3841	152	140	1		0	0	0	2	230	0			0				0.6999999999999999556	0	25	25	1		nan	201						140	155	125	215	245	1	wind	cloud	Planet1A.png	Ship1A.png	blank.png	fog0.png		0
6.6.1	mac	0	2024-01-08	17:23:15	1	1	1	experiment	1	getValueVector	1780		0		1	1	1	1	1	erasure	erasure		1	1	0	1	100	94	3841	152	140	1		0	0	0	2	230	0			0				0.6999999999999999556	0	25	25	1		nan	201						140	155	125	215	245	1	wind	cloud	Planet1A.png	Ship1A.png	blank.png	fog0.png		0
6.6.1	mac	0	2024-01-08	17:23:15	1	1	1	experiment	1	getValueVector	1780		0		1	1	1	1	1	erasure	erasure		1	1	0	1	101	92	3841	152	140	1		0	0	0	2	230	0			0				0.6999999999999999556	0	25	25	1		nan	201						140	155	125	215	245	1	wind	cloud	Planet1A.png	Ship1A.png	blank.png	fog0.png		0
6.6.1	mac	0	2024-01-08	17:23:15	1	1	1	experiment	1	getValueVector	1780		0		1	1	1	1	1	erasure	erasure		1	1	0	1	102	89	3841	152	140	1		0	0	0	2	230	0			0				0.6999999999999999556	0	25	25	1		nan	201						140	155	125	215	245	1	wind	cloud	Planet1A.png	Ship1A.png	blank.png	fog0.png		0
6.6.1	mac	0	2024-01-08	17:23:15	1	1	1	experiment	1	getValueVector	1780		0		1	1	1	1	1	erasure	erasure		1	1	0	1	103	87	3841	152	140	1		0	0	0	2	230	0			0				0.6999999999999999556	0	25	25	1		nan	201						140	155	125	215	245	1	wind	cloud	Planet1A.png	Ship1A.png	blank.png	fog0.png		0
6.6.1	mac	0	2024-01-08	17:23:15	1	1	1	experiment	1	getValueVector	1780		0		1	1	1	1	1	erasure	erasure		1	1	0	1	104	85	3841	152	140	1		0	0	0	2	230	0			0				0.6999999999999999556	0	25	25	1		nan	201						140	155	125	215	245	1	wind	cloud	Planet1A.png	Ship1A.png	blank.png	fog0.png		0
6.6.1	mac	0	2024-01-08	17:23:15	1	1	1	experiment	1	getValueVector	1780		0		1	1	1	1	1	erasure	erasure		1	1	0	1	105	83	3841	152	140	1		0	0	0	2	230	0			0				0.6999999999999999556	0	25	25	1		nan	201						140	155	125	215	245	1	wind	cloud	Planet1A.png	Ship1A.png	blank.png	fog0.png		0
6.6.1	mac	0	2024-01-08	17:23:15	1	1	1	experiment	1	getValueVector	1780		0		1	1	1	1	1	erasure	erasure		1	1	0	1	106	81	3841	152	140	1		0	0	0	2	230	0			0				0.6999999999999999556	0	25	25	1		nan	201						140	155	125	215	245	1	wind	cloud	Planet1A.png	Ship1A.png	blank.png	fog0.png		0
6.6.1	mac	0	2024-01-08	17:23:15	1	1	1	experiment	1	getValueVector	1780		0		1	1	1	1	1	erasure	erasure		1	1	0	1	107	79	3841	152	140	1		0	0	0	2	230	0			0				0.6999999999999999556	0	25	25	1		nan	201						140	155	125	215	245	1	wind	cloud	Planet1A.png	Ship1A.png	blank.png	fog0.png		0
6.6.1	mac	0	2024-01-08	17:23:15	1	1	1	experiment	1	getValueVector	1780		0		1	1	1	1	1	erasure	erasure		1	1	0	1	108	77	3841	152	140	1		0	0	0	2	230	0			0				0.6999999999999999556	0	25	25	1		nan	201						140	155	125	215	245	1	wind	cloud	Planet1A.png	Ship1A.png	blank.png	fog0.png		0
6.6.1	mac	0	2024-01-08	17:23:15	1	1	1	experiment	1	getValueVector	1780		0		1	1	1	1	1	erasure	erasure		1	1	0	1	109	75	3841	152	140	1		0	0	0	2	230	0			0				0.6999999999999999556	0	25	25	1		nan	201						140	155	125	215	245	1	wind	cloud	Planet1A.png	Ship1A.png	blank.png	fog0.png		0
6.6.1	mac	0	2024-01-08	17:23:15	1	1	1	experiment	1	getValueVector	1780		0		1	1	1	1	1	erasure	erasure		1	1	0	1	110	73	3841	152	140	1		0	0	0	2	230	0			0				0.6999999999999999556	0	25	25	1		nan	201						140	155	125	215	245	1	wind	cloud	Planet1A.png	Ship1A.png	blank.png	fog0.png		0
6.6.1	mac	0	2024-01-08	17:23:15	1	1	1	experiment	1	getValueVector	1780		0		1	1	1	1	1	erasure	erasure		1	1	0	1	111	71	3841	152	140	1		0	0	0	2	230	0			0				0.6999999999999999556	0	25	25	1		nan	201						140	155	125	215	245	1	wind	cloud	Planet1A.png	Ship1A.png	blank.png	fog0.png		0
6.6.1	mac	0	2024-01-08	17:23:15	1	1	1	experiment	1	getValueVector	1780		0		1	1	1	1	1	erasure	erasure		1	1	0	1	112	70	3841	152	140	1		0	0	0	2	230	0			0				0.6999999999999999556	0	25	25	1		nan	201						140	155	125	215	245	1	wind	cloud	Planet1A.png	Ship1A.png	blank.png	fog0.png		0
6.6.1	mac	0	2024-01-08	17:23:15	1	1	1	experiment	1	getValueVector	1780		0		1	1	1	1	1	erasure	erasure		1	1	0	1	113	68	3841	152	140	1		0	0	0	2	230	0			0				0.6999999999999999556	0	25	25	1		nan	201						140	155	125	215	245	1	wind	cloud	Planet1A.png	Ship1A.png	blank.png	fog0.png		0
6.6.1	mac	0	2024-01-08	17:23:15	1	1	1	experiment	1	getValueVector	1780		0		1	1	1	1	1	erasure	erasure		1	1	0	1	114	66	3841	152	140	1		0	0	0	2	230	0			0				0.6999999999999999556	0	25	25	1		nan	201						140	155	125	215	245	1	wind	cloud	Planet1A.png	Ship1A.png	blank.png	fog0.png		0
6.6.1	mac	0	2024-01-08	17:23:15	1	1	1	experiment	1	getValueVector	1780		0		1	1	1	1	1	erasure	erasure		1	1	0	1	115	64	3841	152	140	1		0	0	0	2	230	0			0				0.6999999999999999556	0	25	25	1		nan	201						140	155	125	215	245	1	wind	cloud	Planet1A.png	Ship1A.png	blank.png	fog0.png		0
6.6.1	mac	0	2024-01-08	17:23:15	1	1	1	experiment	1	getValueVector	1780		0		1	1	1	1	1	erasure	erasure		1	1	0	1	116	62	3841	152	140	1		0	0	0	2	230	0			0				0.6999999999999999556	0	25	25	1		nan	201						140	155	125	215	245	1	wind	cloud	Planet1A.png	Ship1A.png	blank.png	fog0.png		0
6.6.1	mac	0	2024-01-08	17:23:15	1	1	1	experiment	1	getValueVector	1780		0		1	1	1	1	1	erasure	erasure		1	1	0	1	117	61	3841	152	140	1		0	0	0	2	230	0			0				0.6999999999999999556	0	25	25	1		nan	201						140	155	125	215	245	1	wind	cloud	Planet1A.png	Ship1A.png	blank.png	fog0.png		0
6.6.1	mac	0	2024-01-08	17:23:15	1	1	1	experiment	1	getValueVector	1780		0		1	1	1	1	1	erasure	erasure		1	1	0	1	118	59	3841	152	140	1		0	0	0	2	230	0			0				0.6999999999999999556	0	25	25	1		nan	201						140	155	125	215	245	1	wind	cloud	Planet1A.png	Ship1A.png	blank.png	fog0.png		0
6.6.1	mac	0	2024-01-08	17:23:15	1	1	1	experiment	1	getValueVector	1780		0		1	1	1	1	1	erasure	erasure		1	1	0	1	119	57	3841	152	140	1		0	0	0	2	230	0			0				0.6999999999999999556	0	25	25	1		nan	201						140	155	125	215	245	1	wind	cloud	Planet1A.png	Ship1A.png	blank.png	fog0.png		0
6.6.1	mac	0	2024-01-08	17:23:15	1	1	1	experiment	1	getValueVector	1780		0		1	1	1	1	1	erasure	erasure		1	1	0	1	120	56	3841	152	140	1		0	0	0	2	230	0			0				0.6999999999999999556	0	25	25	1		nan	201						140	155	125	215	245	1	wind	cloud	Planet1A.png	Ship1A.png	blank.png	fog0.png		0
6.6.1	mac	0	2024-01-08	17:23:15	1	1	1	experiment	1	getValueVector	1780		0		1	1	1	1	1	erasure	erasure		1	1	0	1	121	54	3841	152	140	1		0	0	0	2	230	0			0				0.6999999999999999556	0	25	25	1		nan	201						140	155	125	215	245	1	wind	cloud	Planet1A.png	Ship1A.png	blank.png	fog0.png		0
6.6.1	mac	0	2024-01-08	17:23:15	1	1	1	experiment	1	getValueVector	1780		0		1	1	1	1	1	erasure	erasure		1	1	0	1	122	52	3841	152	140	1		0	0	0	2	230	0			0				0.6999999999999999556	0	25	25	1		nan	201						140	155	125	215	245	1	wind	cloud	Planet1A.png	Ship1A.png	blank.png	fog0.png		0
6.6.1	mac	0	2024-01-08	17:23:15	1	1	1	experiment	1	getValueVector	1780		0		1	1	1	1	1	erasure	erasure		1	1	0	1	123	51	3841	152	140	1		0	0	0	2	230	0			0				0.6999999999999999556	0	25	25	1		nan	201						140	155	125	215	245	1	wind	cloud	Planet1A.png	Ship1A.png	blank.png	fog0.png		0
6.6.1	mac	0	2024-01-08	17:23:15	1	1	1	experiment	1	getValueVector	1780		0		1	1	1	1	1	erasure	erasure		1	1	0	1	124	49	3841	152	140	1		0	0	0	2	230	0			0				0.6999999999999999556	0	25	25	1		nan	201						140	155	125	215	245	1	wind	cloud	Planet1A.png	Ship1A.png	blank.png	fog0.png		0
6.6.1	mac	0	2024-01-08	17:23:15	1	1	1	experiment	1	getValueVector	1780		0		1	1	1	1	1	erasure	erasure		1	1	0	1	125	48	3841	152	140	1		0	0	0	2	230	0			0				0.6999999999999999556	0	25	25	1		nan	201						140	155	125	215	245	1	wind	cloud	Planet1A.png	Ship1A.png	blank.png	fog0.png		0
6.6.1	mac	0	2024-01-08	17:23:15	1	1	1	experiment	1	getValueVector	1780		0		1	1	1	1	1	erasure	erasure		1	1	0	1	126	46.2343703703703639007	3841	152	140	1		0	0	0	2	230	0			0				0.6999999999999999556	0	25	25	1		nan	201						140	155	125	215	245	1	wind	cloud	Planet1A.png	Ship1A.png	blank.png	fog0.png		0
6.6.1	mac	0	2024-01-08	17:23:15	1	1	1	experiment	1	getValueVector	1780		0		1	1	1	1	1	erasure	erasure		1	1	0	1	127	44.4749629629629694705	3841	152	140	1		0	0	0	2	230	0			0				0.6999999999999999556	0	25	25	1		nan	201						140	155	125	215	245	1	wind	cloud	Planet1A.png	Ship1A.png	blank.png	fog0.png		0
6.6.1	mac	0	2024-01-08	17:23:15	1	1	1	experiment	1	getValueVector	1780		0		1	1	1	1	1	erasure	erasure		1	1	0	1	128	42.7280000000000086402	3841	152	140	1		0	0	0	2	230	0			0				0.6999999999999999556	0	25	25	1		nan	201						140	155	125	215	245	1	wind	cloud	Planet1A.png	Ship1A.png	blank.png	fog0.png		0
6.6.1	mac	0	2024-01-08	17:23:15	1	1	1	experiment	1	getValueVector	1780		0		1	1	1	1	1	erasure	erasure		1	1	0	1	129	40.9997037037036946572	3841	152	140	1		0	0	0	2	230	0			0				0.6999999999999999556	0	25	25	1		nan	201						140	155	125	215	245	1	wind	cloud	Planet1A.png	Ship1A.png	blank.png	fog0.png		0
6.6.1	mac	0	2024-01-08	17:23:15	1	1	1	experiment	1	getValueVector	1780		0		1	1	1	1	1	erasure	erasure		1	1	0	1	130	39.2962962962962905067	3841	152	140	1		0	0	0	2	230	0			0				0.6999999999999999556	0	25	25	1		nan	201						140	155	125	215	245	1	wind	cloud	Planet1A.png	Ship1A.png	blank.png	fog0.png		0
6.6.1	mac	0	2024-01-08	17:23:15	1	1	1	experiment	1	getValueVector	1780		0		1	1	1	1	1	erasure	erasure		1	1	0	1	131	37.6239999999999952252	3841	152	140	1		0	0	0	2	230	0			0				0.6999999999999999556	0	25	25	1		nan	201						140	155	125	215	245	1	wind	cloud	Planet1A.png	Ship1A.png	blank.png	fog0.png		0
6.6.1	mac	0	2024-01-08	17:23:15	1	1	1	experiment	1	getValueVector	1780		0		1	1	1	1	1	erasure	erasure		1	1	0	1	132	35.9890370370370362707	3841	152	140	1		0	0	0	2	230	0			0				0.6999999999999999556	0	25	25	1		nan	201						140	155	125	215	245	1	wind	cloud	Planet1A.png	Ship1A.png	blank.png	fog0.png		0
6.6.1	mac	0	2024-01-08	17:23:15	1	1	1	experiment	1	getValueVector	1780		0		1	1	1	1	1	erasure	erasure		1	1	0	1	133	34.397629629629633996	3841	152	140	1		0	0	0	2	230	0			0				0.6999999999999999556	0	25	25	1		nan	201						140	155	125	215	245	1	wind	cloud	Planet1A.png	Ship1A.png	blank.png	fog0.png		0
6.6.1	mac	0	2024-01-08	17:23:15	1	1	1	experiment	1	getValueVector	1780		0		1	1	1	1	1	erasure	erasure		1	1	0	1	134	32.8560000000000016485	3841	152	140	1		0	0	0	2	230	0			0				0.6999999999999999556	0	25	25	1		nan	201						140	155	125	215	245	1	wind	cloud	Planet1A.png	Ship1A.png	blank.png	fog0.png		0
6.6.1	mac	0	2024-01-08	17:23:15	1	1	1	experiment	1	getValueVector	1780		0		1	1	1	1	1	erasure	erasure		1	1	0	1	135	31.3703703703703666861	3841	152	140	1		0	0	0	2	230	0			0				0.6999999999999999556	0	25	25	1		nan	201						140	155	125	215	245	1	wind	cloud	Planet1A.png	Ship1A.png	blank.png	fog0.png		0
6.6.1	mac	0	2024-01-08	17:23:15	1	1	1	experiment	1	getValueVector	1780		0		1	1	1	1	1	erasure	erasure		1	1	0	1	136	29.9469629629629636725	3841	152	140	1		0	0	0	2	230	0			0				0.6999999999999999556	0	25	25	1		nan	201						140	155	125	215	245	1	wind	cloud	Planet1A.png	Ship1A.png	blank.png	fog0.png		0
6.6.1	mac	0	2024-01-08	17:23:15	1	1	1	experiment	1	getValueVector	1780		0		1	1	1	1	1	erasure	erasure		1	1	0	1	137	28.5920000000000023022	3841	152	140	1		0	0	0	2	230	0			0				0.6999999999999999556	0	25	25	1		nan	201						140	155	125	215	245	1	wind	cloud	Planet1A.png	Ship1A.png	blank.png	fog0.png		0
6.6.1	mac	0	2024-01-08	17:23:15	1	1	1	experiment	1	getValueVector	1780		0		1	1	1	1	1	erasure	erasure		1	1	0	1	138	27.3117037037037064806	3841	152	140	1		0	0	0	2	230	0			0				0.6999999999999999556	0	25	25	1		nan	201						140	155	125	215	245	1	wind	cloud	Planet1A.png	Ship1A.png	blank.png	fog0.png		0
6.6.1	mac	0	2024-01-08	17:23:15	1	1	1	experiment	1	getValueVector	1780		0		1	1	1	1	1	erasure	erasure		1	1	0	1	139	26.1122962962962930078	3841	152	140	1		0	0	0	2	230	0			0				0.6999999999999999556	0	25	25	1		nan	201						140	155	125	215	245	1	wind	cloud	Planet1A.png	Ship1A.png	blank.png	fog0.png		0
6.6.1	mac	0	2024-01-08	17:23:15	1	1	1	experiment	1	getValueVector	1780		0		1	1	1	1	1	erasure	erasure		1	1	0	1	140	25	3841	152	140	1		0	0	0	2	230	0			0				0.6999999999999999556	0	25	25	1		nan	201						140	155	125	215	245	1	wind	cloud	Planet1A.png	Ship1A.png	blank.png	fog0.png		0
6.6.1	mac	0	2024-01-08	17:23:15	1	1	1	experiment	1	getValueVector	1780		0		1	1	1	1	1	erasure	erasure		1	1	0	1	141	23.9789629629629601482	3841	152	140	1		0	0	0	2	230	0			0				0.6999999999999999556	0	25	25	1		nan	201						140	155	125	215	245	1	wind	cloud	Planet1A.png	Ship1A.png	blank.png	fog0.png		0
6.6.1	mac	0	2024-01-08	17:23:15	1	1	1	experiment	1	getValueVector	1780		0		1	1	1	1	1	erasure	erasure		1	1	0	1	142	23.0450370370370372086	3841	152	140	1		0	0	0	2	230	0			0				0.6999999999999999556	0	25	25	1		nan	201						140	155	125	215	245	1	wind	cloud	Planet1A.png	Ship1A.png	blank.png	fog0.png		0
6.6.1	mac	0	2024-01-08	17:23:15	1	1	1	experiment	1	getValueVector	1780		0		1	1	1	1	1	erasure	erasure		1	1	0	1	143	22.1920000000000001705	3841	152	140	1		0	0	0	2	230	0			0				0.6999999999999999556	0	25	25	1		nan	201						140	155	125	215	245	1	wind	cloud	Planet1A.png	Ship1A.png	blank.png	fog0.png		0
6.6.1	mac	0	2024-01-08	17:23:15	1	1	1	experiment	1	getValueVector	1780		0		1	1	1	1	1	erasure	erasure		1	1	0	1	144	21.4136296296296286812	3841	152	140	1		0	0	0	2	230	0			0				0.6999999999999999556	0	25	25	1		nan	201						140	155	125	215	245	1	wind	cloud	Planet1A.png	Ship1A.png	blank.png	fog0.png		0
6.6.1	mac	0	2024-01-08	17:23:15	1	1	1	experiment	1	getValueVector	1780		0		1	1	1	1	1	erasure	erasure		1	1	0	1	145	20.7037037037036988352	3841	152	140	1		0	0	0	2	230	0			0				0.6999999999999999556	0	25	25	1		nan	201						140	155	125	215	245	1	wind	cloud	Planet1A.png	Ship1A.png	blank.png	fog0.png		0
6.6.1	mac	0	2024-01-08	17:23:15	1	1	1	experiment	1	getValueVector	1780		0		1	1	1	1	1	erasure	erasure		1	1	0	1	146	20.0559999999999973852	3841	152	140	1		0	0	0	2	230	0			0				0.6999999999999999556	0	25	25	1		nan	201						140	155	125	215	245	1	wind	cloud	Planet1A.png	Ship1A.png	blank.png	fog0.png		0
6.6.1	mac	0	2024-01-08	17:23:15	1	1	1	experiment	1	getValueVector	1780		0		1	1	1	1	1	erasure	erasure		1	1	0	1	147	19.4642962962962968732	3841	152	140	1		0	0	0	2	230	0			0				0.6999999999999999556	0	25	25	1		nan	201						140	155	125	215	245	1	wind	cloud	Planet1A.png	Ship1A.png	blank.png	fog0.png		0
6.6.1	mac	0	2024-01-08	17:23:15	1	1	1	experiment	1	getValueVector	1780		0		1	1	1	1	1	erasure	erasure		1	1	0	1	148	18.9223703703703698409	3841	152	140	1		0	0	0	2	230	0			0				0.6999999999999999556	0	25	25	1		nan	201						140	155	125	215	245	1	wind	cloud	Planet1A.png	Ship1A.png	blank.png	fog0.png		0
6.6.1	mac	0	2024-01-08	17:23:15	1	1	1	experiment	1	getValueVector	1780		0		1	1	1	1	1	erasure	erasure		1	1	0	1	149	18.4239999999999994884	3841	152	140	1		0	0	0	2	230	0			0				0.6999999999999999556	0	25	25	1		nan	201						140	155	125	215	245	1	wind	cloud	Planet1A.png	Ship1A.png	blank.png	fog0.png		0
6.6.1	mac	0	2024-01-08	17:23:15	1	1	1	experiment	1	getValueVector	1780		0		1	1	1	1	1	erasure	erasure		1	1	0	1	150	17.9629629629629619103	3841	152	140	1		0	0	0	2	230	0			0				0.6999999999999999556	0	25	25	1		nan	201						140	155	125	215	245	1	wind	cloud	Planet1A.png	Ship1A.png	blank.png	fog0.png		0
6.6.1	mac	0	2024-01-08	17:23:15	1	1	1	experiment	1	getValueVector	1780		0		1	1	1	1	1	erasure	erasure		1	1	0	1	151	17.5330370370370367539	3841	152	140	1		0	0	0	2	230	0			0				0.6999999999999999556	0	25	25	1		nan	201						140	155	125	215	245	1	wind	cloud	Planet1A.png	Ship1A.png	blank.png	fog0.png		0
6.6.1	mac	0	2024-01-08	17:23:15	1	1	1	experiment	1	getValueVector	1780		0		1	1	1	1	1	erasure	erasure		1	1	0	1	152	17.1280000000000001137	3841	152	140	1		0	0	0	2	230	0			0				0.6999999999999999556	0	25	25	1		nan	201						140	155	125	215	245	1	wind	cloud	Planet1A.png	Ship1A.png	blank.png	fog0.png		0
6.6.1	mac	0	2024-01-08	17:23:15	1	1	1	experiment	1	getValueVector	1780		0		1	1	1	1	1	erasure	erasure		1	1	0	1	153	16.7416296296296280843	3841	152	140	1		0	0	0	2	230	0			0				0.6999999999999999556	0	25	25	1		nan	201						140	155	125	215	245	1	wind	cloud	Planet1A.png	Ship1A.png	blank.png	fog0.png		0
6.6.1	mac	0	2024-01-08	17:23:15	1	1	1	experiment	1	getValueVector	1780		0		1	1	1	1	1	erasure	erasure		1	1	0	1	154	16.3677037037037038658	3841	152	140	1		0	0	0	2	230	0			0				0.6999999999999999556	0	25	25	1		nan	201						140	155	125	215	245	1	wind	cloud	Planet1A.png	Ship1A.png	blank.png	fog0.png		0
6.6.1	mac	0	2024-01-08	17:23:15	1	1	1	experiment	1	getValueVector	1780		0		1	1	1	1	1	erasure	erasure		1	1	0	1	155	16	3841	152	140	1		0	0	0	2	230	0			0				0.6999999999999999556	0	25	25	1		nan	201						140	155	125	215	245	1	wind	cloud	Planet1A.png	Ship1A.png	blank.png	fog0.png		0
6.6.1	mac	0	2024-01-08	17:23:15	1	1	1	experiment	1	getValueVector	1780		0		1	1	1	1	1	erasure	erasure		1	1	0	1	156	15	3841	152	140	1		0	0	0	2	230	0			0				0.6999999999999999556	0	25	25	1		nan	201						140	155	125	215	245	1	wind	cloud	Planet1A.png	Ship1A.png	blank.png	fog0.png		0
6.6.1	mac	0	2024-01-08	17:23:15	1	1	1	experiment	1	getValueVector	1780		0		1	1	1	1	1	erasure	erasure		1	1	0	1	157	15	3841	152	140	1		0	0	0	2	230	0			0				0.6999999999999999556	0	25	25	1		nan	201						140	155	125	215	245	1	wind	cloud	Planet1A.png	Ship1A.png	blank.png	fog0.png		0
6.6.1	mac	0	2024-01-08	17:23:15	1	1	1	experiment	1	getValueVector	1780		0		1	1	1	1	1	erasure	erasure		1	1	0	1	158	14	3841	152	140	1		0	0	0	2	230	0			0				0.6999999999999999556	0	25	25	1		nan	201						140	155	125	215	245	1	wind	cloud	Planet1A.png	Ship1A.png	blank.png	fog0.png		0
6.6.1	mac	0	2024-01-08	17:23:15	1	1	1	experiment	1	getValueVector	1780		0		1	1	1	1	1	erasure	erasure		1	1	0	1	159	14	3841	152	140	1		0	0	0	2	230	0			0				0.6999999999999999556	0	25	25	1		nan	201						140	155	125	215	245	1	wind	cloud	Planet1A.png	Ship1A.png	blank.png	fog0.png		0
6.6.1	mac	0	2024-01-08	17:23:15	1	1	1	experiment	1	getValueVector	1780		0		1	1	1	1	1	erasure	erasure		1	1	0	1	160	13	3841	152	140	1		0	0	0	2	230	0			0				0.6999999999999999556	0	25	25	1		nan	201						140	155	125	215	245	1	wind	cloud	Planet1A.png	Ship1A.png	blank.png	fog0.png		0
6.6.1	mac	0	2024-01-08	17:23:15	1	1	1	experiment	1	getValueVector	1780		0		1	1	1	1	1	erasure	erasure		1	1	0	1	161	13	3841	152	140	1		0	0	0	2	230	0			0				0.6999999999999999556	0	25	25	1		nan	201						140	155	125	215	245	1	wind	cloud	Planet1A.png	Ship1A.png	blank.png	fog0.png		0
6.6.1	mac	0	2024-01-08	17:23:15	1	1	1	experiment	1	getValueVector	1780		0		1	1	1	1	1	erasure	erasure		1	1	0	1	162	13	3841	152	140	1		0	0	0	2	230	0			0				0.6999999999999999556	0	25	25	1		nan	201						140	155	125	215	245	1	wind	cloud	Planet1A.png	Ship1A.png	blank.png	fog0.png		0
6.6.1	mac	0	2024-01-08	17:23:15	1	1	1	experiment	1	getValueVector	1780		0		1	1	1	1	1	erasure	erasure		1	1	0	1	163	13	3841	152	140	1		0	0	0	2	230	0			0				0.6999999999999999556	0	25	25	1		nan	201						140	155	125	215	245	1	wind	cloud	Planet1A.png	Ship1A.png	blank.png	fog0.png		0
6.6.1	mac	0	2024-01-08	17:23:15	1	1	1	experiment	1	getValueVector	1780		0		1	1	1	1	1	erasure	erasure		1	1	0	1	164	12	3841	152	140	1		0	0	0	2	230	0			0				0.6999999999999999556	0	25	25	1		nan	201						140	155	125	215	245	1	wind	cloud	Planet1A.png	Ship1A.png	blank.png	fog0.png		0
6.6.1	mac	0	2024-01-08	17:23:15	1	1	1	experiment	1	getValueVector	1780		0		1	1	1	1	1	erasure	erasure		1	1	0	1	165	12	3841	152	140	1		0	0	0	2	230	0			0				0.6999999999999999556	0	25	25	1		nan	201						140	155	125	215	245	1	wind	cloud	Planet1A.png	Ship1A.png	blank.png	fog0.png		0
6.6.1	mac	0	2024-01-08	17:23:15	1	1	1	experiment	1	getValueVector	1780		0		1	1	1	1	1	erasure	erasure		1	1	0	1	166	12	3841	152	140	1		0	0	0	2	230	0			0				0.6999999999999999556	0	25	25	1		nan	201						140	155	125	215	245	1	wind	cloud	Planet1A.png	Ship1A.png	blank.png	fog0.png		0
6.6.1	mac	0	2024-01-08	17:23:15	1	1	1	experiment	1	getValueVector	1780		0		1	1	1	1	1	erasure	erasure		1	1	0	1	167	12	3841	152	140	1		0	0	0	2	230	0			0				0.6999999999999999556	0	25	25	1		nan	201						140	155	125	215	245	1	wind	cloud	Planet1A.png	Ship1A.png	blank.png	fog0.png		0
6.6.1	mac	0	2024-01-08	17:23:15	1	1	1	experiment	1	getValueVector	1780		0		1	1	1	1	1	erasure	erasure		1	1	0	1	168	11	3841	152	140	1		0	0	0	2	230	0			0				0.6999999999999999556	0	25	25	1		nan	201						140	155	125	215	245	1	wind	cloud	Planet1A.png	Ship1A.png	blank.png	fog0.png		0
6.6.1	mac	0	2024-01-08	17:23:15	1	1	1	experiment	1	getValueVector	1780		0		1	1	1	1	1	erasure	erasure		1	1	0	1	169	11	3841	152	140	1		0	0	0	2	230	0			0				0.6999999999999999556	0	25	25	1		nan	201						140	155	125	215	245	1	wind	cloud	Planet1A.png	Ship1A.png	blank.png	fog0.png		0
6.6.1	mac	0	2024-01-08	17:23:15	1	1	1	experiment	1	getValueVector	1780		0		1	1	1	1	1	erasure	erasure		1	1	0	1	170	11	3841	152	140	1		0	0	0	2	230	0			0				0.6999999999999999556	0	25	25	1		nan	201						140	155	125	215	245	1	wind	cloud	Planet1A.png	Ship1A.png	blank.png	fog0.png		0
6.6.1	mac	0	2024-01-08	17:23:15	1	1	1	experiment	1	getValueVector	1780		0		1	1	1	1	1	erasure	erasure		1	1	0	1	171	11	3841	152	140	1		0	0	0	2	230	0			0				0.6999999999999999556	0	25	25	1		nan	201						140	155	125	215	245	1	wind	cloud	Planet1A.png	Ship1A.png	blank.png	fog0.png		0
6.6.1	mac	0	2024-01-08	17:23:15	1	1	1	experiment	1	getValueVector	1780		0		1	1	1	1	1	erasure	erasure		1	1	0	1	172	11	3841	152	140	1		0	0	0	2	230	0			0				0.6999999999999999556	0	25	25	1		nan	201						140	155	125	215	245	1	wind	cloud	Planet1A.png	Ship1A.png	blank.png	fog0.png		0
6.6.1	mac	0	2024-01-08	17:23:15	1	1	1	experiment	1	getValueVector	1780		0		1	1	1	1	1	erasure	erasure		1	1	0	1	173	11	3841	152	140	1		0	0	0	2	230	0			0				0.6999999999999999556	0	25	25	1		nan	201						140	155	125	215	245	1	wind	cloud	Planet1A.png	Ship1A.png	blank.png	fog0.png		0
6.6.1	mac	0	2024-01-08	17:23:15	1	1	1	experiment	1	getValueVector	1780		0		1	1	1	1	1	erasure	erasure		1	1	0	1	174	11	3841	152	140	1		0	0	0	2	230	0			0				0.6999999999999999556	0	25	25	1		nan	201						140	155	125	215	245	1	wind	cloud	Planet1A.png	Ship1A.png	blank.png	fog0.png		0
6.6.1	mac	0	2024-01-08	17:23:15	1	1	1	experiment	1	getValueVector	1780		0		1	1	1	1	1	erasure	erasure		1	1	0	1	175	11	3841	152	140	1		0	0	0	2	230	0			0				0.6999999999999999556	0	25	25	1		nan	201						140	155	125	215	245	1	wind	cloud	Planet1A.png	Ship1A.png	blank.png	fog0.png		0
6.6.1	mac	0	2024-01-08	17:23:15	1	1	1	experiment	1	getValueVector	1780		0		1	1	1	1	1	erasure	erasure		1	1	0	1	176	11	3841	152	140	1		0	0	0	2	230	0			0				0.6999999999999999556	0	25	25	1		nan	201						140	155	125	215	245	1	wind	cloud	Planet1A.png	Ship1A.png	blank.png	fog0.png		0
6.6.1	mac	0	2024-01-08	17:23:15	1	1	1	experiment	1	getValueVector	1780		0		1	1	1	1	1	erasure	erasure		1	1	0	1	177	11	3841	152	140	1		0	0	0	2	230	0			0				0.6999999999999999556	0	25	25	1		nan	201						140	155	125	215	245	1	wind	cloud	Planet1A.png	Ship1A.png	blank.png	fog0.png		0
6.6.1	mac	0	2024-01-08	17:23:15	1	1	1	experiment	1	getValueVector	1780		0		1	1	1	1	1	erasure	erasure		1	1	0	1	178	11	3841	152	140	1		0	0	0	2	230	0			0				0.6999999999999999556	0	25	25	1		nan	201						140	155	125	215	245	1	wind	cloud	Planet1A.png	Ship1A.png	blank.png	fog0.png		0
6.6.1	mac	0	2024-01-08	17:23:15	1	1	1	experiment	1	getValueVector	1780		0		1	1	1	1	1	erasure	erasure		1	1	0	1	179	11	3841	152	140	1		0	0	0	2	230	0			0				0.6999999999999999556	0	25	25	1		nan	201						140	155	125	215	245	1	wind	cloud	Planet1A.png	Ship1A.png	blank.png	fog0.png		0
6.6.1	mac	0	2024-01-08	17:23:15	1	1	1	experiment	1	getValueVector	1780		0		1	1	1	1	1	erasure	erasure		1	1	0	1	180	11	3841	152	140	1		0	0	0	2	230	0			0				0.6999999999999999556	0	25	25	1		nan	201						140	155	125	215	245	1	wind	cloud	Planet1A.png	Ship1A.png	blank.png	fog0.png		0
6.6.1	mac	0	2024-01-08	17:23:15	1	1	1	experiment	1	getValueVector	1780		0		1	1	1	1	1	erasure	erasure		1	1	0	1	181	12	3841	152	140	1		0	0	0	2	230	0			0				0.6999999999999999556	0	25	25	1		nan	201						140	155	125	215	245	1	wind	cloud	Planet1A.png	Ship1A.png	blank.png	fog0.png		0
6.6.1	mac	0	2024-01-08	17:23:15	1	1	1	experiment	1	getValueVector	1780		0		1	1	1	1	1	erasure	erasure		1	1	0	1	182	12	3841	152	140	1		0	0	0	2	230	0			0				0.6999999999999999556	0	25	25	1		nan	201						140	155	125	215	245	1	wind	cloud	Planet1A.png	Ship1A.png	blank.png	fog0.png		0
6.6.1	mac	0	2024-01-08	17:23:15	1	1	1	experiment	1	getValueVector	1780		0		1	1	1	1	1	erasure	erasure		1	1	0	1	183	12	3841	152	140	1		0	0	0	2	230	0			0				0.6999999999999999556	0	25	25	1		nan	201						140	155	125	215	245	1	wind	cloud	Planet1A.png	Ship1A.png	blank.png	fog0.png		0
6.6.1	mac	0	2024-01-08	17:23:15	1	1	1	experiment	1	getValueVector	1780		0		1	1	1	1	1	erasure	erasure		1	1	0	1	184	12	3841	152	140	1		0	0	0	2	230	0			0				0.6999999999999999556	0	25	25	1		nan	201						140	155	125	215	245	1	wind	cloud	Planet1A.png	Ship1A.png	blank.png	fog0.png		0
6.6.1	mac	0	2024-01-08	17:23:15	1	1	1	experiment	1	getValueVector	1780		0		1	1	1	1	1	erasure	erasure		1	1	0	1	185	12	3841	152	140	1		0	0	0	2	230	0			0				0.6999999999999999556	0	25	25	1		nan	201						140	155	125	215	245	1	wind	cloud	Planet1A.png	Ship1A.png	blank.png	fog0.png		0
6.6.1	mac	0	2024-01-08	17:23:15	1	1	1	experiment	1	getValueVector	1780		0		1	1	1	1	1	erasure	erasure		1	1	0	1	186	12	3841	152	140	1		0	0	0	2	230	0			0				0.6999999999999999556	0	25	25	1		nan	201						140	155	125	215	245	1	wind	cloud	Planet1A.png	Ship1A.png	blank.png	fog0.png		0
6.6.1	mac	0	2024-01-08	17:23:15	1	1	1	experiment	1	getValueVector	1780		0		1	1	1	1	1	erasure	erasure		1	1	0	1	187	12	3841	152	140	1		0	0	0	2	230	0			0				0.6999999999999999556	0	25	25	1		nan	201						140	155	125	215	245	1	wind	cloud	Planet1A.png	Ship1A.png	blank.png	fog0.png		0
6.6.1	mac	0	2024-01-08	17:23:15	1	1	1	experiment	1	getValueVector	1780		0		1	1	1	1	1	erasure	erasure		1	1	0	1	188	12	3841	152	140	1		0	0	0	2	230	0			0				0.6999999999999999556	0	25	25	1		nan	201						140	155	125	215	245	1	wind	cloud	Planet1A.png	Ship1A.png	blank.png	fog0.png		0
6.6.1	mac	0	2024-01-08	17:23:15	1	1	1	experiment	1	getValueVector	1780		0		1	1	1	1	1	erasure	erasure		1	1	0	1	189	13	3841	152	140	1		0	0	0	2	230	0			0				0.6999999999999999556	0	25	25	1		nan	201						140	155	125	215	245	1	wind	cloud	Planet1A.png	Ship1A.png	blank.png	fog0.png		0
6.6.1	mac	0	2024-01-08	17:23:15	1	1	1	experiment	1	getValueVector	1780		0		1	1	1	1	1	erasure	erasure		1	1	0	1	190	13	3841	152	140	1		0	0	0	2	230	0			0				0.6999999999999999556	0	25	25	1		nan	201						140	155	125	215	245	1	wind	cloud	Planet1A.png	Ship1A.png	blank.png	fog0.png		0
6.6.1	mac	0	2024-01-08	17:23:15	1	1	1	experiment	1	getValueVector	1780		0		1	1	1	1	1	erasure	erasure		1	1	0	1	191	13	3841	152	140	1		0	0	0	2	230	0			0				0.6999999999999999556	0	25	25	1		nan	201						140	155	125	215	245	1	wind	cloud	Planet1A.png	Ship1A.png	blank.png	fog0.png		0
6.6.1	mac	0	2024-01-08	17:23:15	1	1	1	experiment	1	getValueVector	1780		0		1	1	1	1	1	erasure	erasure		1	1	0	1	192	13	3841	152	140	1		0	0	0	2	230	0			0				0.6999999999999999556	0	25	25	1		nan	201						140	155	125	215	245	1	wind	cloud	Planet1A.png	Ship1A.png	blank.png	fog0.png		0
6.6.1	mac	0	2024-01-08	17:23:15	1	1	1	experiment	1	getValueVector	1780		0		1	1	1	1	1	erasure	erasure		1	1	0	1	193	13	3841	152	140	1		0	0	0	2	230	0			0				0.6999999999999999556	0	25	25	1		nan	201						140	155	125	215	245	1	wind	cloud	Planet1A.png	Ship1A.png	blank.png	fog0.png		0
6.6.1	mac	0	2024-01-08	17:23:15	1	1	1	experiment	1	getValueVector	1780		0		1	1	1	1	1	erasure	erasure		1	1	0	1	194	13	3841	152	140	1		0	0	0	2	230	0			0				0.6999999999999999556	0	25	25	1		nan	201						140	155	125	215	245	1	wind	cloud	Planet1A.png	Ship1A.png	blank.png	fog0.png		0
6.6.1	mac	0	2024-01-08	17:23:15	1	1	1	experiment	1	getValueVector	1780		0		1	1	1	1	1	erasure	erasure		1	1	0	1	195	13	3841	152	140	1		0	0	0	2	230	0			0				0.6999999999999999556	0	25	25	1		nan	201						140	155	125	215	245	1	wind	cloud	Planet1A.png	Ship1A.png	blank.png	fog0.png		0
6.6.1	mac	0	2024-01-08	17:23:15	1	1	1	experiment	1	getValueVector	1780		0		1	1	1	1	1	erasure	erasure		1	1	0	1	196	13	3841	152	140	1		0	0	0	2	230	0			0				0.6999999999999999556	0	25	25	1		nan	201						140	155	125	215	245	1	wind	cloud	Planet1A.png	Ship1A.png	blank.png	fog0.png		0
6.6.1	mac	0	2024-01-08	17:23:15	1	1	1	experiment	1	getValueVector	1780		0		1	1	1	1	1	erasure	erasure		1	1	0	1	197	13	3841	152	140	1		0	0	0	2	230	0			0				0.6999999999999999556	0	25	25	1		nan	201						140	155	125	215	245	1	wind	cloud	Planet1A.png	Ship1A.png	blank.png	fog0.png		0
6.6.1	mac	0	2024-01-08	17:23:15	1	1	1	experiment	1	getValueVector	1780		0		1	1	1	1	1	erasure	erasure		1	1	0	1	198	14	3841	152	140	1		0	0	0	2	230	0			0				0.6999999999999999556	0	25	25	1		nan	201						140	155	125	215	245	1	wind	cloud	Planet1A.png	Ship1A.png	blank.png	fog0.png		0
6.6.1	mac	0	2024-01-08	17:23:15	1	1	1	experiment	1	getValueVector	1780		0		1	1	1	1	1	erasure	erasure		1	1	0	1	199	14	3841	152	140	1		0	0	0	2	230	0			0				0.6999999999999999556	0	25	25	1		nan	201						140	155	125	215	245	1	wind	cloud	Planet1A.png	Ship1A.png	blank.png	fog0.png		0
6.6.1	mac	0	2024-01-08	17:23:15	1	1	1	experiment	1	getValueVector	1780		0		1	1	1	1	1	erasure	erasure		1	1	0	1	200	14	3841	152	140	1		0	0	0	2	230	0			0				0.6999999999999999556	0	25	25	1		nan	201						140	155	125	215	245	1	wind	cloud	Planet1A.png	Ship1A.png	blank.png	fog0.png		0
6.6.1	mac	0	2024-01-08	17:23:15	1	1	1	experiment	1	getValueVector	1780		0		1	1	1	1	1	erasure	erasure		1	1	0	1	201	14	3841	152	140	1		0	0	0	2	230	0			0				0.6999999999999999556	0	25	25	1		nan	201						140	155	125	215	245	1	wind	cloud	Planet1A.png	Ship1A.png	blank.png	fog0.png		0
6.6.1	mac	0	2024-01-08	17:23:15	1	1	1	experiment	1	getValueVector	1780		0		1	1	1	1	1	erasure	erasure		1	1	0	1	202	14	3841	152	140	1		0	0	0	2	230	0			0				0.6999999999999999556	0	25	25	1		nan	201						140	155	125	215	245	1	wind	cloud	Planet1A.png	Ship1A.png	blank.png	fog0.png		0
6.6.1	mac	0	2024-01-08	17:23:15	1	1	1	experiment	1	getValueVector	1780		0		1	1	1	1	1	erasure	erasure		1	1	0	1	203	14	3841	152	140	1		0	0	0	2	230	0			0				0.6999999999999999556	0	25	25	1		nan	201						140	155	125	215	245	1	wind	cloud	Planet1A.png	Ship1A.png	blank.png	fog0.png		0
6.6.1	mac	0	2024-01-08	17:23:15	1	1	1	experiment	1	getValueVector	1780		0		1	1	1	1	1	erasure	erasure		1	1	0	1	204	14	3841	152	140	1		0	0	0	2	230	0			0				0.6999999999999999556	0	25	25	1		nan	201						140	155	125	215	245	1	wind	cloud	Planet1A.png	Ship1A.png	blank.png	fog0.png		0
6.6.1	mac	0	2024-01-08	17:23:15	1	1	1	experiment	1	getValueVector	1780		0		1	1	1	1	1	erasure	erasure		1	1	0	1	205	14	3841	152	140	1		0	0	0	2	230	0			0				0.6999999999999999556	0	25	25	1		nan	201						140	155	125	215	245	1	wind	cloud	Planet1A.png	Ship1A.png	blank.png	fog0.png		0
6.6.1	mac	0	2024-01-08	17:23:15	1	1	1	experiment	1	getValueVector	1780		0		1	1	1	1	1	erasure	erasure		1	1	0	1	206	14	3841	152	140	1		0	0	0	2	230	0			0				0.6999999999999999556	0	25	25	1		nan	201						140	155	125	215	245	1	wind	cloud	Planet1A.png	Ship1A.png	blank.png	fog0.png		0
6.6.1	mac	0	2024-01-08	17:23:15	1	1	1	experiment	1	getValueVector	1780		0		1	1	1	1	1	erasure	erasure		1	1	0	1	207	14	3841	152	140	1		0	0	0	2	230	0			0				0.6999999999999999556	0	25	25	1		nan	201						140	155	125	215	245	1	wind	cloud	Planet1A.png	Ship1A.png	blank.png	fog0.png		0
6.6.1	mac	0	2024-01-08	17:23:15	1	1	1	experiment	1	getValueVector	1780		0		1	1	1	1	1	erasure	erasure		1	1	0	1	208	14	3841	152	140	1		0	0	0	2	230	0			0				0.6999999999999999556	0	25	25	1		nan	201						140	155	125	215	245	1	wind	cloud	Planet1A.png	Ship1A.png	blank.png	fog0.png		0
6.6.1	mac	0	2024-01-08	17:23:15	1	1	1	experiment	1	getValueVector	1780		0		1	1	1	1	1	erasure	erasure		1	1	0	1	209	14	3841	152	140	1		0	0	0	2	230	0			0				0.6999999999999999556	0	25	25	1		nan	201						140	155	125	215	245	1	wind	cloud	Planet1A.png	Ship1A.png	blank.png	fog0.png		0
6.6.1	mac	0	2024-01-08	17:23:15	1	1	1	experiment	1	getValueVector	1780		0		1	1	1	1	1	erasure	erasure		1	1	0	1	210	14	3841	152	140	1		0	0	0	2	230	0			0				0.6999999999999999556	0	25	25	1		nan	201						140	155	125	215	245	1	wind	cloud	Planet1A.png	Ship1A.png	blank.png	fog0.png		0
6.6.1	mac	0	2024-01-08	17:23:15	1	1	1	experiment	1	getValueVector	1780		0		1	1	1	1	1	erasure	erasure		1	1	0	1	211	13	3841	152	140	1		0	0	0	2	230	0			0				0.6999999999999999556	0	25	25	1		nan	201						140	155	125	215	245	1	wind	cloud	Planet1A.png	Ship1A.png	blank.png	fog0.png		0
6.6.1	mac	0	2024-01-08	17:23:15	1	1	1	experiment	1	getValueVector	1780		0		1	1	1	1	1	erasure	erasure		1	1	0	1	212	13	3841	152	140	1		0	0	0	2	230	0			0				0.6999999999999999556	0	25	25	1		nan	201						140	155	125	215	245	1	wind	cloud	Planet1A.png	Ship1A.png	blank.png	fog0.png		0
6.6.1	mac	0	2024-01-08	17:23:15	1	1	1	experiment	1	getValueVector	1780		0		1	1	1	1	1	erasure	erasure		1	1	0	1	213	13	3841	152	140	1		0	0	0	2	230	0			0				0.6999999999999999556	0	25	25	1		nan	201						140	155	125	215	245	1	wind	cloud	Planet1A.png	Ship1A.png	blank.png	fog0.png		0
6.6.1	mac	0	2024-01-08	17:23:15	1	1	1	experiment	1	getValueVector	1780		0		1	1	1	1	1	erasure	erasure		1	1	0	1	214	13	3841	152	140	1		0	0	0	2	230	0			0				0.6999999999999999556	0	25	25	1		nan	201						140	155	125	215	245	1	wind	cloud	Planet1A.png	Ship1A.png	blank.png	fog0.png		0
6.6.1	mac	0	2024-01-08	17:23:15	1	1	1	experiment	1	getValueVector	1780		0		1	1	1	1	1	erasure	erasure		1	1	0	1	215	13	3841	152	140	1		0	0	0	2	230	0			0				0.6999999999999999556	0	25	25	1		nan	201						140	155	125	215	245	1	wind	cloud	Planet1A.png	Ship1A.png	blank.png	fog0.png		0
6.6.1	mac	0	2024-01-08	17:23:15	1	1	1	experiment	1	getValueVector	1780		0		1	1	1	1	1	erasure	erasure		1	1	0	1	216	13	3841	152	140	1		0	0	0	2	230	0			0				0.6999999999999999556	0	25	25	1		nan	201						140	155	125	215	245	1	wind	cloud	Planet1A.png	Ship1A.png	blank.png	fog0.png		0
6.6.1	mac	0	2024-01-08	17:23:15	1	1	1	experiment	1	getValueVector	1780		0		1	1	1	1	1	erasure	erasure		1	1	0	1	217	13	3841	152	140	1		0	0	0	2	230	0			0				0.6999999999999999556	0	25	25	1		nan	201						140	155	125	215	245	1	wind	cloud	Planet1A.png	Ship1A.png	blank.png	fog0.png		0
6.6.1	mac	0	2024-01-08	17:23:15	1	1	1	experiment	1	getValueVector	1780		0		1	1	1	1	1	erasure	erasure		1	1	0	1	218	12	3841	152	140	1		0	0	0	2	230	0			0				0.6999999999999999556	0	25	25	1		nan	201						140	155	125	215	245	1	wind	cloud	Planet1A.png	Ship1A.png	blank.png	fog0.png		0
6.6.1	mac	0	2024-01-08	17:23:15	1	1	1	experiment	1	getValueVector	1780		0		1	1	1	1	1	erasure	erasure		1	1	0	1	219	12	3841	152	140	1		0	0	0	2	230	0			0				0.6999999999999999556	0	25	25	1		nan	201						140	155	125	215	245	1	wind	cloud	Planet1A.png	Ship1A.png	blank.png	fog0.png		0
6.6.1	mac	0	2024-01-08	17:23:15	1	1	1	experiment	1	getValueVector	1780		0		1	1	1	1	1	erasure	erasure		1	1	0	1	220	12	3841	152	140	1		0	0	0	2	230	0			0				0.6999999999999999556	0	25	25	1		nan	201						140	155	125	215	245	1	wind	cloud	Planet1A.png	Ship1A.png	blank.png	fog0.png		0
6.6.1	mac	0	2024-01-08	17:23:15	1	1	1	experiment	1	getValueVector	1780		0		1	1	1	1	1	erasure	erasure		1	1	0	1	221	12	3841	152	140	1		0	0	0	2	230	0			0				0.6999999999999999556	0	25	25	1		nan	201						140	155	125	215	245	1	wind	cloud	Planet1A.png	Ship1A.png	blank.png	fog0.png		0
6.6.1	mac	0	2024-01-08	17:23:15	1	1	1	experiment	1	getValueVector	1780		0		1	1	1	1	1	erasure	erasure		1	1	0	1	222	11	3841	152	140	1		0	0	0	2	230	0			0				0.6999999999999999556	0	25	25	1		nan	201						140	155	125	215	245	1	wind	cloud	Planet1A.png	Ship1A.png	blank.png	fog0.png		0
6.6.1	mac	0	2024-01-08	17:23:15	1	1	1	experiment	1	getValueVector	1780		0		1	1	1	1	1	erasure	erasure		1	1	0	1	223	11	3841	152	140	1		0	0	0	2	230	0			0				0.6999999999999999556	0	25	25	1		nan	201						140	155	125	215	245	1	wind	cloud	Planet1A.png	Ship1A.png	blank.png	fog0.png		0
6.6.1	mac	0	2024-01-08	17:23:15	1	1	1	experiment	1	getValueVector	1780		0		1	1	1	1	1	erasure	erasure		1	1	0	1	224	11	3841	152	140	1		0	0	0	2	230	0			0				0.6999999999999999556	0	25	25	1		nan	201						140	155	125	215	245	1	wind	cloud	Planet1A.png	Ship1A.png	blank.png	fog0.png		0
6.6.1	mac	0	2024-01-08	17:23:15	1	1	1	experiment	1	getValueVector	1780		0		1	1	1	1	1	erasure	erasure		1	1	0	1	225	11	3841	152	140	1		0	0	0	2	230	0			0				0.6999999999999999556	0	25	25	1		nan	201						140	155	125	215	245	1	wind	cloud	Planet1A.png	Ship1A.png	blank.png	fog0.png		0
6.6.1	mac	0	2024-01-08	17:23:15	1	1	1	experiment	1	getValueVector	1780		0		1	1	1	1	1	erasure	erasure		1	1	0	1	226	10	3841	152	140	1		0	0	0	2	230	0			0				0.6999999999999999556	0	25	25	1		nan	201						140	155	125	215	245	1	wind	cloud	Planet1A.png	Ship1A.png	blank.png	fog0.png		0
6.6.1	mac	0	2024-01-08	17:23:15	1	1	1	experiment	1	getValueVector	1780		0		1	1	1	1	1	erasure	erasure		1	1	0	1	227	10	3841	152	140	1		0	0	0	2	230	0			0				0.6999999999999999556	0	25	25	1		nan	201						140	155	125	215	245	1	wind	cloud	Planet1A.png	Ship1A.png	blank.png	fog0.png		0
6.6.1	mac	0	2024-01-08	17:23:15	1	1	1	experiment	1	getValueVector	1780		0		1	1	1	1	1	erasure	erasure		1	1	0	1	228	10	3841	152	140	1		0	0	0	2	230	0			0				0.6999999999999999556	0	25	25	1		nan	201						140	155	125	215	245	1	wind	cloud	Planet1A.png	Ship1A.png	blank.png	fog0.png		0
6.6.1	mac	0	2024-01-08	17:23:15	1	1	1	experiment	1	getValueVector	1780		0		1	1	1	1	1	erasure	erasure		1	1	0	1	229	9	3841	152	140	1		0	0	0	2	230	0			0				0.6999999999999999556	0	25	25	1		nan	201						140	155	125	215	245	1	wind	cloud	Planet1A.png	Ship1A.png	blank.png	fog0.png		0
6.6.1	mac	0	2024-01-08	17:23:15	1	1	1	experiment	1	getValueVector	1780		0		1	1	1	1	1	erasure	erasure		1	1	0	1	230	9	3841	152	140	1		0	0	0	2	230	0			0				0.6999999999999999556	0	25	25	1		nan	201						140	155	125	215	245	1	wind	cloud	Planet1A.png	Ship1A.png	blank.png	fog0.png		0
6.6.1	mac	0	2024-01-08	17:23:15	1	1	1	experiment	1	getValueVector	1780		0		1	1	1	1	1	erasure	erasure		1	1	0	1	231	9	3841	152	140	1		0	0	0	2	230	0			0				0.6999999999999999556	0	25	25	1		nan	201						140	155	125	215	245	1	wind	cloud	Planet1A.png	Ship1A.png	blank.png	fog0.png		0
6.6.1	mac	0	2024-01-08	17:23:15	1	1	1	experiment	1	getValueVector	1780		0		1	1	1	1	1	erasure	erasure		1	1	0	1	232	8	3841	152	140	1		0	0	0	2	230	0			0				0.6999999999999999556	0	25	25	1		nan	201						140	155	125	215	245	1	wind	cloud	Planet1A.png	Ship1A.png	blank.png	fog0.png		0
6.6.1	mac	0	2024-01-08	17:23:15	1	1	1	experiment	1	getValueVector	1780		0		1	1	1	1	1	erasure	erasure		1	1	0	1	233	8	3841	152	140	1		0	0	0	2	230	0			0				0.6999999999999999556	0	25	25	1		nan	201						140	155	125	215	245	1	wind	cloud	Planet1A.png	Ship1A.png	blank.png	fog0.png		0
6.6.1	mac	0	2024-01-08	17:23:15	1	1	1	experiment	1	getValueVector	1780		0		1	1	1	1	1	erasure	erasure		1	1	0	1	234	8	3841	152	140	1		0	0	0	2	230	0			0				0.6999999999999999556	0	25	25	1		nan	201						140	155	125	215	245	1	wind	cloud	Planet1A.png	Ship1A.png	blank.png	fog0.png		0
6.6.1	mac	0	2024-01-08	17:23:15	1	1	1	experiment	1	getValueVector	1780		0		1	1	1	1	1	erasure	erasure		1	1	0	1	235	7	3841	152	140	1		0	0	0	2	230	0			0				0.6999999999999999556	0	25	25	1		nan	201						140	155	125	215	245	1	wind	cloud	Planet1A.png	Ship1A.png	blank.png	fog0.png		0
6.6.1	mac	0	2024-01-08	17:23:15	1	1	1	experiment	1	getValueVector	1780		0		1	1	1	1	1	erasure	erasure		1	1	0	1	236	7	3841	152	140	1		0	0	0	2	230	0			0				0.6999999999999999556	0	25	25	1		nan	201						140	155	125	215	245	1	wind	cloud	Planet1A.png	Ship1A.png	blank.png	fog0.png		0
6.6.1	mac	0	2024-01-08	17:23:15	1	1	1	experiment	1	getValueVector	1780		0		1	1	1	1	1	erasure	erasure		1	1	0	1	237	7	3841	152	140	1		0	0	0	2	230	0			0				0.6999999999999999556	0	25	25	1		nan	201						140	155	125	215	245	1	wind	cloud	Planet1A.png	Ship1A.png	blank.png	fog0.png		0
6.6.1	mac	0	2024-01-08	17:23:15	1	1	1	experiment	1	getValueVector	1780		0		1	1	1	1	1	erasure	erasure		1	1	0	1	238	6	3841	152	140	1		0	0	0	2	230	0			0				0.6999999999999999556	0	25	25	1		nan	201						140	155	125	215	245	1	wind	cloud	Planet1A.png	Ship1A.png	blank.png	fog0.png		0
6.6.1	mac	0	2024-01-08	17:23:15	1	1	1	experiment	1	getValueVector	1780		0		1	1	1	1	1	erasure	erasure		1	1	0	1	239	6	3841	152	140	1		0	0	0	2	230	0			0				0.6999999999999999556	0	25	25	1		nan	201						140	155	125	215	245	1	wind	cloud	Planet1A.png	Ship1A.png	blank.png	fog0.png		0
6.6.1	mac	0	2024-01-08	17:23:15	1	1	1	experiment	1	getValueVector	1780		0		1	1	1	1	1	erasure	erasure		1	1	0	1	240	6	3841	152	140	1		0	0	0	2	230	0			0				0.6999999999999999556	0	25	25	1		nan	201						140	155	125	215	245	1	wind	cloud	Planet1A.png	Ship1A.png	blank.png	fog0.png		0
6.6.1	mac	0	2024-01-08	17:23:15	1	1	1	experiment	1	getValueVector	1780		0		1	1	1	1	1	erasure	erasure		1	1	0	1	241	5	3841	152	140	1		0	0	0	2	230	0			0				0.6999999999999999556	0	25	25	1		nan	201						140	155	125	215	245	1	wind	cloud	Planet1A.png	Ship1A.png	blank.png	fog0.png		0
6.6.1	mac	0	2024-01-08	17:23:15	1	1	1	experiment	1	getValueVector	1780		0		1	1	1	1	1	erasure	erasure		1	1	0	1	242	5	3841	152	140	1		0	0	0	2	230	0			0				0.6999999999999999556	0	25	25	1		nan	201						140	155	125	215	245	1	wind	cloud	Planet1A.png	Ship1A.png	blank.png	fog0.png		0
6.6.1	mac	0	2024-01-08	17:23:15	1	1	1	experiment	1	getValueVector	1780		0		1	1	1	1	1	erasure	erasure		1	1	0	1	243	5	3841	152	140	1		0	0	0	2	230	0			0				0.6999999999999999556	0	25	25	1		nan	201						140	155	125	215	245	1	wind	cloud	Planet1A.png	Ship1A.png	blank.png	fog0.png		0
6.6.1	mac	0	2024-01-08	17:23:15	1	1	1	experiment	1	getValueVector	1780		0		1	1	1	1	1	erasure	erasure		1	1	0	1	244	4	3841	152	140	1		0	0	0	2	230	0			0				0.6999999999999999556	0	25	25	1		nan	201						140	155	125	215	245	1	wind	cloud	Planet1A.png	Ship1A.png	blank.png	fog0.png		0
6.6.1	mac	0	2024-01-08	17:23:15	1	1	1	experiment	1	getValueVector	1780		0		1	1	1	1	1	erasure	erasure		1	1	0	1	245	4	3841	152	140	1		0	0	0	2	230	0			0				0.6999999999999999556	0	25	25	1		nan	201						140	155	125	215	245	1	wind	cloud	Planet1A.png	Ship1A.png	blank.png	fog0.png		0
6.6.1	mac	0	2024-01-08	17:23:15	1	1	1	experiment	1	getValueVector	1780		0		1	1	1	1	1	erasure	erasure		1	1	0	1	246	4	3841	152	140	1		0	0	0	2	230	0			0				0.6999999999999999556	0	25	25	1		nan	201						140	155	125	215	245	1	wind	cloud	Planet1A.png	Ship1A.png	blank.png	fog0.png		0
6.6.1	mac	0	2024-01-08	17:23:15	1	1	1	experiment	1	getValueVector	1780		0		1	1	1	1	1	erasure	erasure		1	1	0	1	247	3	3841	152	140	1		0	0	0	2	230	0			0				0.6999999999999999556	0	25	25	1		nan	201						140	155	125	215	245	1	wind	cloud	Planet1A.png	Ship1A.png	blank.png	fog0.png		0
6.6.1	mac	0	2024-01-08	17:23:15	1	1	1	experiment	1	getValueVector	1780		0		1	1	1	1	1	erasure	erasure		1	1	0	1	248	3	3841	152	140	1		0	0	0	2	230	0			0				0.6999999999999999556	0	25	25	1		nan	201						140	155	125	215	245	1	wind	cloud	Planet1A.png	Ship1A.png	blank.png	fog0.png		0
6.6.1	mac	0	2024-01-08	17:23:15	1	1	1	experiment	1	getValueVector	1780		0		1	1	1	1	1	erasure	erasure		1	1	0	1	249	3	3841	152	140	1		0	0	0	2	230	0			0				0.6999999999999999556	0	25	25	1		nan	201						140	155	125	215	245	1	wind	cloud	Planet1A.png	Ship1A.png	blank.png	fog0.png		0
6.6.1	mac	0	2024-01-08	17:23:15	1	1	1	experiment	1	getValueVector	1780		0		1	1	1	1	1	erasure	erasure		1	1	0	1	250	3	3841	152	140	1		0	0	0	2	230	0			0				0.6999999999999999556	0	25	25	1		nan	201						140	155	125	215	245	1	wind	cloud	Planet1A.png	Ship1A.png	blank.png	fog0.png		0
6.6.1	mac	0	2024-01-08	17:23:15	1	1	1	experiment	1	getValueVector	1780		0		1	1	1	1	1	erasure	erasure		1	1	0	1	251	2	3841	152	140	1		0	0	0	2	230	0			0				0.6999999999999999556	0	25	25	1		nan	201						140	155	125	215	245	1	wind	cloud	Planet1A.png	Ship1A.png	blank.png	fog0.png		0
6.6.1	mac	0	2024-01-08	17:23:15	1	1	1	experiment	1	getValueVector	1780		0		1	1	1	1	1	erasure	erasure		1	1	0	1	252	2	3841	152	140	1		0	0	0	2	230	0			0				0.6999999999999999556	0	25	25	1		nan	201						140	155	125	215	245	1	wind	cloud	Planet1A.png	Ship1A.png	blank.png	fog0.png		0
6.6.1	mac	0	2024-01-08	17:23:15	1	1	1	experiment	1	getValueVector	1780		0		1	1	1	1	1	erasure	erasure		1	1	0	1	253	2	3841	152	140	1		0	0	0	2	230	0			0				0.6999999999999999556	0	25	25	1		nan	201						140	155	125	215	245	1	wind	cloud	Planet1A.png	Ship1A.png	blank.png	fog0.png		0
6.6.1	mac	0	2024-01-08	17:23:15	1	1	1	experiment	1	getValueVector	1780		0		1	1	1	1	1	erasure	erasure		1	1	0	1	254	2	3841	152	140	1		0	0	0	2	230	0			0				0.6999999999999999556	0	25	25	1		nan	201						140	155	125	215	245	1	wind	cloud	Planet1A.png	Ship1A.png	blank.png	fog0.png		0
6.6.1	mac	0	2024-01-08	17:23:15	1	1	1	experiment	1	getValueVector	1780		0		1	1	1	1	1	erasure	erasure		1	1	0	1	255	2	3841	152	140	1		0	0	0	2	230	0			0				0.6999999999999999556	0	25	25	1		nan	201						140	155	125	215	245	1	wind	cloud	Planet1A.png	Ship1A.png	blank.png	fog0.png		0
6.6.1	mac	0	2024-01-08	17:23:15	1	1	1	experiment	1	getValueVector	1780		0		1	1	1	1	1	erasure	erasure		1	1	0	1	256	1	3841	152	140	1		0	0	0	2	230	0			0				0.6999999999999999556	0	25	25	1		nan	201						140	155	125	215	245	1	wind	cloud	Planet1A.png	Ship1A.png	blank.png	fog0.png		0
6.6.1	mac	0	2024-01-08	17:23:15	1	1	1	experiment	1	getValueVector	1780		0		1	1	1	1	1	erasure	erasure		1	1	0	1	257	1	3841	152	140	1		0	0	0	2	230	0			0				0.6999999999999999556	0	25	25	1		nan	201						140	155	125	215	245	1	wind	cloud	Planet1A.png	Ship1A.png	blank.png	fog0.png		0
6.6.1	mac	0	2024-01-08	17:23:15	1	1	1	experiment	1	getValueVector	1780		0		1	1	1	1	1	erasure	erasure		1	1	0	1	258	1	3841	152	140	1		0	0	0	2	230	0			0				0.6999999999999999556	0	25	25	1		nan	201						140	155	125	215	245	1	wind	cloud	Planet1A.png	Ship1A.png	blank.png	fog0.png		0
6.6.1	mac	0	2024-01-08	17:23:15	1	1	1	experiment	1	getValueVector	1780		0		1	1	1	1	1	erasure	erasure		1	1	0	1	259	1	3841	152	140	1		0	0	0	2	230	0			0				0.6999999999999999556	0	25	25	1		nan	201						140	155	125	215	245	1	wind	cloud	Planet1A.png	Ship1A.png	blank.png	fog0.png		0
6.6.1	mac	0	2024-01-08	17:23:15	1	1	1	experiment	1	getValueVector	1780		0		1	1	1	1	1	erasure	erasure		1	1	0	1	260	1	3841	152	140	1		0	0	0	2	230	0			0				0.6999999999999999556	0	25	25	1		nan	201						140	155	125	215	245	1	wind	cloud	Planet1A.png	Ship1A.png	blank.png	fog0.png		0
6.6.1	mac	0	2024-01-08	17:23:15	1	1	1	experiment	1	getValueVector	1780		0		1	1	1	1	1	erasure	erasure		1	1	0	1	261	1	3841	152	140	1		0	0	0	2	230	0			0				0.6999999999999999556	0	25	25	1		nan	201						140	155	125	215	245	1	wind	cloud	Planet1A.png	Ship1A.png	blank.png	fog0.png		0
6.6.1	mac	0	2024-01-08	17:23:15	1	1	1	experiment	1	getValueVector	1780		0		1	1	1	1	1	erasure	erasure		1	1	0	1	262	1	3841	152	140	1		0	0	0	2	230	0			0				0.6999999999999999556	0	25	25	1		nan	201						140	155	125	215	245	1	wind	cloud	Planet1A.png	Ship1A.png	blank.png	fog0.png		0
6.6.1	mac	0	2024-01-08	17:23:15	1	1	1	experiment	1	getValueVector	1780		0		1	1	1	1	1	erasure	erasure		1	1	0	1	263	1	3841	152	140	1		0	0	0	2	230	0			0				0.6999999999999999556	0	25	25	1		nan	201						140	155	125	215	245	1	wind	cloud	Planet1A.png	Ship1A.png	blank.png	fog0.png		0
6.6.1	mac	0	2024-01-08	17:23:15	1	1	1	experiment	1	getValueVector	1780		0		1	1	1	1	1	erasure	erasure		1	1	0	1	264	1	3841	152	140	1		0	0	0	2	230	0			0				0.6999999999999999556	0	25	25	1		nan	201						140	155	125	215	245	1	wind	cloud	Planet1A.png	Ship1A.png	blank.png	fog0.png		0
6.6.1	mac	0	2024-01-08	17:23:15	1	1	1	experiment	1	getValueVector	1780		0		1	1	1	1	1	erasure	erasure		1	1	0	1	265	1	3841	152	140	1		0	0	0	2	230	0			0				0.6999999999999999556	0	25	25	1		nan	201						140	155	125	215	245	1	wind	cloud	Planet1A.png	Ship1A.png	blank.png	fog0.png		0
6.6.1	mac	0	2024-01-08	17:23:15	1	1	1	experiment	1	getValueVector	1780		0		1	1	1	1	1	erasure	erasure		1	1	0	1	266	1	3841	152	140	1		0	0	0	2	230	0			0				0.6999999999999999556	0	25	25	1		nan	201						140	155	125	215	245	1	wind	cloud	Planet1A.png	Ship1A.png	blank.png	fog0.png		0
6.6.1	mac	0	2024-01-08	17:23:15	1	1	1	experiment	1	getValueVector	1780		0		1	1	1	1	1	erasure	erasure		1	1	0	1	267	1	3841	152	140	1		0	0	0	2	230	0			0				0.6999999999999999556	0	25	25	1		nan	201						140	155	125	215	245	1	wind	cloud	Planet1A.png	Ship1A.png	blank.png	fog0.png		0
6.6.1	mac	0	2024-01-08	17:23:15	1	1	1	experiment	1	getValueVector	1780		0		1	1	1	1	1	erasure	erasure		1	1	0	1	268	1	3841	152	140	1		0	0	0	2	230	0			0				0.6999999999999999556	0	25	25	1		nan	201						140	155	125	215	245	1	wind	cloud	Planet1A.png	Ship1A.png	blank.png	fog0.png		0
6.6.1	mac	0	2024-01-08	17:23:15	1	1	1	experiment	1	getValueVector	1780		0		1	1	1	1	1	erasure	erasure		1	1	0	1	269	2	3841	152	140	1		0	0	0	2	230	0			0				0.6999999999999999556	0	25	25	1		nan	201						140	155	125	215	245	1	wind	cloud	Planet1A.png	Ship1A.png	blank.png	fog0.png		0
6.6.1	mac	0	2024-01-08	17:23:15	1	1	1	experiment	1	getValueVector	1780		0		1	1	1	1	1	erasure	erasure		1	1	0	1	270	2	3841	152	140	1		0	0	0	2	230	0			0				0.6999999999999999556	0	25	25	1		nan	201						140	155	125	215	245	1	wind	cloud	Planet1A.png	Ship1A.png	blank.png	fog0.png		0
6.6.1	mac	0	2024-01-08	17:23:15	1	1	1	experiment	1	getValueVector	1780		0		1	1	1	1	1	erasure	erasure		1	1	0	1	271	2	3841	152	140	1		0	0	0	2	230	0			0				0.6999999999999999556	0	25	25	1		nan	201						140	155	125	215	245	1	wind	cloud	Planet1A.png	Ship1A.png	blank.png	fog0.png		0
6.6.1	mac	0	2024-01-08	17:23:15	1	1	1	experiment	1	getValueVector	1780		0		1	1	1	1	1	erasure	erasure		1	1	0	1	272	2	3841	152	140	1		0	0	0	2	230	0			0				0.6999999999999999556	0	25	25	1		nan	201						140	155	125	215	245	1	wind	cloud	Planet1A.png	Ship1A.png	blank.png	fog0.png		0
6.6.1	mac	0	2024-01-08	17:23:15	1	1	1	experiment	1	getValueVector	1780		0		1	1	1	1	1	erasure	erasure		1	1	0	1	273	2	3841	152	140	1		0	0	0	2	230	0			0				0.6999999999999999556	0	25	25	1		nan	201						140	155	125	215	245	1	wind	cloud	Planet1A.png	Ship1A.png	blank.png	fog0.png		0
6.6.1	mac	0	2024-01-08	17:23:15	1	1	1	experiment	1	getValueVector	1780		0		1	1	1	1	1	erasure	erasure		1	1	0	1	274	3	3841	152	140	1		0	0	0	2	230	0			0				0.6999999999999999556	0	25	25	1		nan	201						140	155	125	215	245	1	wind	cloud	Planet1A.png	Ship1A.png	blank.png	fog0.png		0
6.6.1	mac	0	2024-01-08	17:23:15	1	1	1	experiment	1	getValueVector	1780		0		1	1	1	1	1	erasure	erasure		1	1	0	1	275	3	3841	152	140	1		0	0	0	2	230	0			0				0.6999999999999999556	0	25	25	1		nan	201						140	155	125	215	245	1	wind	cloud	Planet1A.png	Ship1A.png	blank.png	fog0.png		0
6.6.1	mac	0	2024-01-08	17:23:15	1	1	1	experiment	1	getValueVector	1780		0		1	1	1	1	1	erasure	erasure		1	1	0	1	276	3	3841	152	140	1		0	0	0	2	230	0			0				0.6999999999999999556	0	25	25	1		nan	201						140	155	125	215	245	1	wind	cloud	Planet1A.png	Ship1A.png	blank.png	fog0.png		0
6.6.1	mac	0	2024-01-08	17:23:15	1	1	1	experiment	1	getValueVector	1780		0		1	1	1	1	1	erasure	erasure		1	1	0	1	277	4	3841	152	140	1		0	0	0	2	230	0			0				0.6999999999999999556	0	25	25	1		nan	201						140	155	125	215	245	1	wind	cloud	Planet1A.png	Ship1A.png	blank.png	fog0.png		0
6.6.1	mac	0	2024-01-08	17:23:15	1	1	1	experiment	1	getValueVector	1780		0		1	1	1	1	1	erasure	erasure		1	1	0	1	278	4	3841	152	140	1		0	0	0	2	230	0			0				0.6999999999999999556	0	25	25	1		nan	201						140	155	125	215	245	1	wind	cloud	Planet1A.png	Ship1A.png	blank.png	fog0.png		0
6.6.1	mac	0	2024-01-08	17:23:15	1	1	1	experiment	1	getValueVector	1780		0		1	1	1	1	1	erasure	erasure		1	1	0	1	279	4	3841	152	140	1		0	0	0	2	230	0			0				0.6999999999999999556	0	25	25	1		nan	201						140	155	125	215	245	1	wind	cloud	Planet1A.png	Ship1A.png	blank.png	fog0.png		0
6.6.1	mac	0	2024-01-08	17:23:15	1	1	1	experiment	1	getValueVector	1780		0		1	1	1	1	1	erasure	erasure		1	1	0	1	280	5	3841	152	140	1		0	0	0	2	230	0			0				0.6999999999999999556	0	25	25	1		nan	201						140	155	125	215	245	1	wind	cloud	Planet1A.png	Ship1A.png	blank.png	fog0.png		0
6.6.1	mac	0	2024-01-08	17:23:15	1	1	1	experiment	1	getValueVector	1780		0		1	1	1	1	1	erasure	erasure		1	1	0	1	281	5	3841	152	140	1		0	0	0	2	230	0			0				0.6999999999999999556	0	25	25	1		nan	201						140	155	125	215	245	1	wind	cloud	Planet1A.png	Ship1A.png	blank.png	fog0.png		0
6.6.1	mac	0	2024-01-08	17:23:15	1	1	1	experiment	1	getValueVector	1780		0		1	1	1	1	1	erasure	erasure		1	1	0	1	282	6	3841	152	140	1		0	0	0	2	230	0			0				0.6999999999999999556	0	25	25	1		nan	201						140	155	125	215	245	1	wind	cloud	Planet1A.png	Ship1A.png	blank.png	fog0.png		0
6.6.1	mac	0	2024-01-08	17:23:15	1	1	1	experiment	1	getValueVector	1780		0		1	1	1	1	1	erasure	erasure		1	1	0	1	283	6	3841	152	140	1		0	0	0	2	230	0			0				0.6999999999999999556	0	25	25	1		nan	201						140	155	125	215	245	1	wind	cloud	Planet1A.png	Ship1A.png	blank.png	fog0.png		0
6.6.1	mac	0	2024-01-08	17:23:15	1	1	1	experiment	1	getValueVector	1780		0		1	1	1	1	1	erasure	erasure		1	1	0	1	284	7	3841	152	140	1		0	0	0	2	230	0			0				0.6999999999999999556	0	25	25	1		nan	201						140	155	125	215	245	1	wind	cloud	Planet1A.png	Ship1A.png	blank.png	fog0.png		0
6.6.1	mac	0	2024-01-08	17:23:15	1	1	1	experiment	1	getValueVector	1780		0		1	1	1	1	1	erasure	erasure		1	1	0	1	285	7	3841	152	140	1		0	0	0	2	230	0			0				0.6999999999999999556	0	25	25	1		nan	201						140	155	125	215	245	1	wind	cloud	Planet1A.png	Ship1A.png	blank.png	fog0.png		0
6.6.1	mac	0	2024-01-08	17:23:15	1	1	1	experiment	1	getValueVector	1780		0		1	1	1	1	1	erasure	erasure		1	1	0	1	286	8	3841	152	140	1		0	0	0	2	230	0			0				0.6999999999999999556	0	25	25	1		nan	201						140	155	125	215	245	1	wind	cloud	Planet1A.png	Ship1A.png	blank.png	fog0.png		0
6.6.1	mac	0	2024-01-08	17:23:15	1	1	1	experiment	1	getValueVector	1780		0		1	1	1	1	1	erasure	erasure		1	1	0	1	287	9	3841	152	140	1		0	0	0	2	230	0			0				0.6999999999999999556	0	25	25	1		nan	201						140	155	125	215	245	1	wind	cloud	Planet1A.png	Ship1A.png	blank.png	fog0.png		0
6.6.1	mac	0	2024-01-08	17:23:15	1	1	1	experiment	1	getValueVector	1780		0		1	1	1	1	1	erasure	erasure		1	1	0	1	288	9	3841	152	140	1		0	0	0	2	230	0			0				0.6999999999999999556	0	25	25	1		nan	201						140	155	125	215	245	1	wind	cloud	Planet1A.png	Ship1A.png	blank.png	fog0.png		0
6.6.1	mac	0	2024-01-08	17:23:15	1	1	1	experiment	1	getValueVector	1780		0		1	1	1	1	1	erasure	erasure		1	1	0	1	289	10	3841	152	140	1		0	0	0	2	230	0			0				0.6999999999999999556	0	25	25	1		nan	201						140	155	125	215	245	1	wind	cloud	Planet1A.png	Ship1A.png	blank.png	fog0.png		0
6.6.1	mac	0	2024-01-08	17:23:15	1	1	1	experiment	1	getValueVector	1780		0		1	1	1	1	1	erasure	erasure		1	1	0	1	290	11	3841	152	140	1		0	0	0	2	230	0			0				0.6999999999999999556	0	25	25	1		nan	201						140	155	125	215	245	1	wind	cloud	Planet1A.png	Ship1A.png	blank.png	fog0.png		0
6.6.1	mac	0	2024-01-08	17:23:15	1	1	1	experiment	1	getValueVector	1780		0		1	1	1	1	1	erasure	erasure		1	1	0	1	291	11	3841	152	140	1		0	0	0	2	230	0			0				0.6999999999999999556	0	25	25	1		nan	201						140	155	125	215	245	1	wind	cloud	Planet1A.png	Ship1A.png	blank.png	fog0.png		0
6.6.1	mac	0	2024-01-08	17:23:15	1	1	1	experiment	1	getValueVector	1780		0		1	1	1	1	1	erasure	erasure		1	1	0	1	292	12	3841	152	140	1		0	0	0	2	230	0			0				0.6999999999999999556	0	25	25	1		nan	201						140	155	125	215	245	1	wind	cloud	Planet1A.png	Ship1A.png	blank.png	fog0.png		0
6.6.1	mac	0	2024-01-08	17:23:15	1	1	1	experiment	1	getValueVector	1780		0		1	1	1	1	1	erasure	erasure		1	1	0	1	293	13	3841	152	140	1		0	0	0	2	230	0			0				0.6999999999999999556	0	25	25	1		nan	201						140	155	125	215	245	1	wind	cloud	Planet1A.png	Ship1A.png	blank.png	fog0.png		0
6.6.1	mac	0	2024-01-08	17:23:15	1	1	1	experiment	1	getValueVector	1780		0		1	1	1	1	1	erasure	erasure		1	1	0	1	294	13	3841	152	140	1		0	0	0	2	230	0			0				0.6999999999999999556	0	25	25	1		nan	201						140	155	125	215	245	1	wind	cloud	Planet1A.png	Ship1A.png	blank.png	fog0.png		0
6.6.1	mac	0	2024-01-08	17:23:15	1	1	1	experiment	1	getValueVector	1780		0		1	1	1	1	1	erasure	erasure		1	1	0	1	295	14	3841	152	140	1		0	0	0	2	230	0			0				0.6999999999999999556	0	25	25	1		nan	201						140	155	125	215	245	1	wind	cloud	Planet1A.png	Ship1A.png	blank.png	fog0.png		0
6.6.1	mac	0	2024-01-08	17:23:15	1	1	1	experiment	1	getValueVector	1780		0		1	1	1	1	1	erasure	erasure		1	1	0	1	296	15	3841	152	140	1		0	0	0	2	230	0			0				0.6999999999999999556	0	25	25	1		nan	201						140	155	125	215	245	1	wind	cloud	Planet1A.png	Ship1A.png	blank.png	fog0.png		0
6.6.1	mac	0	2024-01-08	17:23:15	1	1	1	experiment	1	getValueVector	1780		0		1	1	1	1	1	erasure	erasure		1	1	0	1	297	16	3841	152	140	1		0	0	0	2	230	0			0				0.6999999999999999556	0	25	25	1		nan	201						140	155	125	215	245	1	wind	cloud	Planet1A.png	Ship1A.png	blank.png	fog0.png		0
6.6.1	mac	0	2024-01-08	17:23:15	1	1	1	experiment	1	getValueVector	1780		0		1	1	1	1	1	erasure	erasure		1	1	0	1	298	17	3841	152	140	1		0	0	0	2	230	0			0				0.6999999999999999556	0	25	25	1		nan	201						140	155	125	215	245	1	wind	cloud	Planet1A.png	Ship1A.png	blank.png	fog0.png		0
6.6.1	mac	0	2024-01-08	17:23:15	1	1	1	experiment	1	getValueVector	1780		0		1	1	1	1	1	erasure	erasure		1	1	0	1	299	17	3841	152	140	1		0	0	0	2	230	0			0				0.6999999999999999556	0	25	25	1		nan	201						140	155	125	215	245	1	wind	cloud	Planet1A.png	Ship1A.png	blank.png	fog0.png		0
6.6.1	mac	0	2024-01-08	17:23:15	1	1	1	experiment	1	getValueVector	1780		0		1	1	1	1	1	erasure	erasure		1	1	0	1	300	18	3841	152	140	1		0	0	0	2	230	0			0				0.6999999999999999556	0	25	25	1		nan	201						140	155	125	215	245	1	wind	cloud	Planet1A.png	Ship1A.png	blank.png	fog0.png		0
6.6.1	mac	0	2024-01-08	17:23:15	1	1	1	experiment	1	getValueVector	1780		0		1	1	1	1	1	erasure	erasure		1	1	0	1	301	19	3841	152	140	1		0	0	0	2	230	0			0				0.6999999999999999556	0	25	25	1		nan	201						140	155	125	215	245	1	wind	cloud	Planet1A.png	Ship1A.png	blank.png	fog0.png		0
6.6.1	mac	0	2024-01-08	17:23:15	1	1	1	experiment	1	getValueVector	1780		0		1	1	1	1	1	erasure	erasure		1	1	0	1	302	20	3841	152	140	1		0	0	0	2	230	0			0				0.6999999999999999556	0	25	25	1		nan	201						140	155	125	215	245	1	wind	cloud	Planet1A.png	Ship1A.png	blank.png	fog0.png		0
6.6.1	mac	0	2024-01-08	17:23:15	1	1	1	experiment	1	getValueVector	1780		0		1	1	1	1	1	erasure	erasure		1	1	0	1	303	21	3841	152	140	1		0	0	0	2	230	0			0				0.6999999999999999556	0	25	25	1		nan	201						140	155	125	215	245	1	wind	cloud	Planet1A.png	Ship1A.png	blank.png	fog0.png		0
6.6.1	mac	0	2024-01-08	17:23:15	1	1	1	experiment	1	getValueVector	1780		0		1	1	1	1	1	erasure	erasure		1	1	0	1	304	22	3841	152	140	1		0	0	0	2	230	0			0				0.6999999999999999556	0	25	25	1		nan	201						140	155	125	215	245	1	wind	cloud	Planet1A.png	Ship1A.png	blank.png	fog0.png		0
6.6.1	mac	0	2024-01-08	17:23:15	1	1	1	experiment	1	getValueVector	1780		0		1	1	1	1	1	erasure	erasure		1	1	0	1	305	23	3841	152	140	1		0	0	0	2	230	0			0				0.6999999999999999556	0	25	25	1		nan	201						140	155	125	215	245	1	wind	cloud	Planet1A.png	Ship1A.png	blank.png	fog0.png		0
6.6.1	mac	0	2024-01-08	17:23:15	1	1	1	experiment	1	getValueVector	1780		0		1	1	1	1	1	erasure	erasure		1	1	0	1	306	24	3841	152	140	1		0	0	0	2	230	0			0				0.6999999999999999556	0	25	25	1		nan	201						140	155	125	215	245	1	wind	cloud	Planet1A.png	Ship1A.png	blank.png	fog0.png		0
6.6.1	mac	0	2024-01-08	17:23:15	1	1	1	experiment	1	getValueVector	1780		0		1	1	1	1	1	erasure	erasure		1	1	0	1	307	25	3841	152	140	1		0	0	0	2	230	0			0				0.6999999999999999556	0	25	25	1		nan	201						140	155	125	215	245	1	wind	cloud	Planet1A.png	Ship1A.png	blank.png	fog0.png		0
6.6.1	mac	0	2024-01-08	17:23:15	1	1	1	experiment	1	getValueVector	1780		0		1	1	1	1	1	erasure	erasure		1	1	0	1	308	26	3841	152	140	1		0	0	0	2	230	0			0				0.6999999999999999556	0	25	25	1		nan	201						140	155	125	215	245	1	wind	cloud	Planet1A.png	Ship1A.png	blank.png	fog0.png		0
6.6.1	mac	0	2024-01-08	17:23:15	1	1	1	experiment	1	getValueVector	1780		0		1	1	1	1	1	erasure	erasure		1	1	0	1	309	27	3841	152	140	1		0	0	0	2	230	0			0				0.6999999999999999556	0	25	25	1		nan	201						140	155	125	215	245	1	wind	cloud	Planet1A.png	Ship1A.png	blank.png	fog0.png		0
6.6.1	mac	0	2024-01-08	17:23:15	1	1	1	experiment	1	getValueVector	1780		0		1	1	1	1	1	erasure	erasure		1	1	0	1	310	28	3841	152	140	1		0	0	0	2	230	0			0				0.6999999999999999556	0	25	25	1		nan	201						140	155	125	215	245	1	wind	cloud	Planet1A.png	Ship1A.png	blank.png	fog0.png		0
6.6.1	mac	0	2024-01-08	17:23:15	1	1	1	experiment	1	getValueVector	1780		0		1	1	1	1	1	erasure	erasure		1	1	0	1	311	29	3841	152	140	1		0	0	0	2	230	0			0				0.6999999999999999556	0	25	25	1		nan	201						140	155	125	215	245	1	wind	cloud	Planet1A.png	Ship1A.png	blank.png	fog0.png		0
6.6.1	mac	0	2024-01-08	17:23:15	1	1	1	experiment	1	getValueVector	1780		0		1	1	1	1	1	erasure	erasure		1	1	0	1	312	30	3841	152	140	1		0	0	0	2	230	0			0				0.6999999999999999556	0	25	25	1		nan	201						140	155	125	215	245	1	wind	cloud	Planet1A.png	Ship1A.png	blank.png	fog0.png		0
6.6.1	mac	0	2024-01-08	17:23:15	1	1	1	experiment	1	getValueVector	1780		0		1	1	1	1	1	erasure	erasure		1	1	0	1	313	31	3841	152	140	1		0	0	0	2	230	0			0				0.6999999999999999556	0	25	25	1		nan	201						140	155	125	215	245	1	wind	cloud	Planet1A.png	Ship1A.png	blank.png	fog0.png		0
6.6.1	mac	0	2024-01-08	17:23:15	1	1	1	experiment	1	getValueVector	1780		0		1	1	1	1	1	erasure	erasure		1	1	0	1	314	32	3841	152	140	1		0	0	0	2	230	0			0				0.6999999999999999556	0	25	25	1		nan	201						140	155	125	215	245	1	wind	cloud	Planet1A.png	Ship1A.png	blank.png	fog0.png		0
6.6.1	mac	0	2024-01-08	17:23:15	1	1	1	experiment	1	getValueVector	1780		0		1	1	1	1	1	erasure	erasure		1	1	0	1	315	33	3841	152	140	1		0	0	0	2	230	0			0				0.6999999999999999556	0	25	25	1		nan	201						140	155	125	215	245	1	wind	cloud	Planet1A.png	Ship1A.png	blank.png	fog0.png		0
6.6.1	mac	0	2024-01-08	17:23:15	1	1	1	experiment	1	getValueVector	1780		0		1	1	1	1	1	erasure	erasure		1	1	0	1	316	34	3841	152	140	1		0	0	0	2	230	0			0				0.6999999999999999556	0	25	25	1		nan	201						140	155	125	215	245	1	wind	cloud	Planet1A.png	Ship1A.png	blank.png	fog0.png		0
6.6.1	mac	0	2024-01-08	17:23:15	1	1	1	experiment	1	getValueVector	1780		0		1	1	1	1	1	erasure	erasure		1	1	0	1	317	35	3841	152	140	1		0	0	0	2	230	0			0				0.6999999999999999556	0	25	25	1		nan	201						140	155	125	215	245	1	wind	cloud	Planet1A.png	Ship1A.png	blank.png	fog0.png		0
6.6.1	mac	0	2024-01-08	17:23:15	1	1	1	experiment	1	getValueVector	1780		0		1	1	1	1	1	erasure	erasure		1	1	0	1	318	36	3841	152	140	1		0	0	0	2	230	0			0				0.6999999999999999556	0	25	25	1		nan	201						140	155	125	215	245	1	wind	cloud	Planet1A.png	Ship1A.png	blank.png	fog0.png		0
6.6.1	mac	0	2024-01-08	17:23:15	1	1	1	experiment	1	getValueVector	1780		0		1	1	1	1	1	erasure	erasure		1	1	0	1	319	37	3841	152	140	1		0	0	0	2	230	0			0				0.6999999999999999556	0	25	25	1		nan	201						140	155	125	215	245	1	wind	cloud	Planet1A.png	Ship1A.png	blank.png	fog0.png		0
6.6.1	mac	0	2024-01-08	17:23:15	1	1	1	experiment	1	getValueVector	1780		0		1	1	1	1	1	erasure	erasure		1	1	0	1	320	38	3841	152	140	1		0	0	0	2	230	0			0				0.6999999999999999556	0	25	25	1		nan	201						140	155	125	215	245	1	wind	cloud	Planet1A.png	Ship1A.png	blank.png	fog0.png		0
6.6.1	mac	0	2024-01-08	17:23:15	1	1	1	experiment	1	getValueVector	1780		0		1	1	1	1	1	erasure	erasure		1	1	0	1	321	39	3841	152	140	1		0	0	0	2	230	0			0				0.6999999999999999556	0	25	25	1		nan	201						140	155	125	215	245	1	wind	cloud	Planet1A.png	Ship1A.png	blank.png	fog0.png		0
6.6.1	mac	0	2024-01-08	17:23:15	1	1	1	experiment	1	getValueVector	1780		0		1	1	1	1	1	erasure	erasure		1	1	0	1	322	41	3841	152	140	1		0	0	0	2	230	0			0				0.6999999999999999556	0	25	25	1		nan	201						140	155	125	215	245	1	wind	cloud	Planet1A.png	Ship1A.png	blank.png	fog0.png		0
6.6.1	mac	0	2024-01-08	17:23:15	1	1	1	experiment	1	getValueVector	1780		0		1	1	1	1	1	erasure	erasure		1	1	0	1	323	42	3841	152	140	1		0	0	0	2	230	0			0				0.6999999999999999556	0	25	25	1		nan	201						140	155	125	215	245	1	wind	cloud	Planet1A.png	Ship1A.png	blank.png	fog0.png		0
6.6.1	mac	0	2024-01-08	17:23:15	1	1	1	experiment	1	getValueVector	1780		0		1	1	1	1	1	erasure	erasure		1	1	0	1	324	43	3841	152	140	1		0	0	0	2	230	0			0				0.6999999999999999556	0	25	25	1		nan	201						140	155	125	215	245	1	wind	cloud	Planet1A.png	Ship1A.png	blank.png	fog0.png		0
6.6.1	mac	0	2024-01-08	17:23:15	1	1	1	experiment	1	getValueVector	1780		0		1	1	1	1	1	erasure	erasure		1	1	0	1	325	44	3841	152	140	1		0	0	0	2	230	0			0				0.6999999999999999556	0	25	25	1		nan	201						140	155	125	215	245	1	wind	cloud	Planet1A.png	Ship1A.png	blank.png	fog0.png		0
6.6.1	mac	0	2024-01-08	17:23:15	1	1	1	experiment	1	getValueVector	1780		0		1	1	1	1	1	erasure	erasure		1	1	0	1	326	45	3841	152	140	1		0	0	0	2	230	0			0				0.6999999999999999556	0	25	25	1		nan	201						140	155	125	215	245	1	wind	cloud	Planet1A.png	Ship1A.png	blank.png	fog0.png		0
6.6.1	mac	0	2024-01-08	17:23:15	1	1	1	experiment	1	getValueVector	1780		0		1	1	1	1	1	erasure	erasure		1	1	0	1	327	47	3841	152	140	1		0	0	0	2	230	0			0				0.6999999999999999556	0	25	25	1		nan	201						140	155	125	215	245	1	wind	cloud	Planet1A.png	Ship1A.png	blank.png	fog0.png		0
6.6.1	mac	0	2024-01-08	17:23:15	1	1	1	experiment	1	getValueVector	1780		0		1	1	1	1	1	erasure	erasure		1	1	0	1	328	48	3841	152	140	1		0	0	0	2	230	0			0				0.6999999999999999556	0	25	25	1		nan	201						140	155	125	215	245	1	wind	cloud	Planet1A.png	Ship1A.png	blank.png	fog0.png		0
6.6.1	mac	0	2024-01-08	17:23:15	1	1	1	experiment	1	getValueVector	1780		0		1	1	1	1	1	erasure	erasure		1	1	0	1	329	49	3841	152	140	1		0	0	0	2	230	0			0				0.6999999999999999556	0	25	25	1		nan	201						140	155	125	215	245	1	wind	cloud	Planet1A.png	Ship1A.png	blank.png	fog0.png		0
6.6.1	mac	0	2024-01-08	17:23:15	1	1	1	experiment	1	getValueVector	1780		0		1	1	1	1	1	erasure	erasure		1	1	0	1	330	51	3841	152	140	1		0	0	0	2	230	0			0				0.6999999999999999556	0	25	25	1		nan	201						140	155	125	215	245	1	wind	cloud	Planet1A.png	Ship1A.png	blank.png	fog0.png		0
6.6.1	mac	0	2024-01-08	17:23:15	1	1	1	experiment	1	getValueVector	1780		0		1	1	1	1	1	erasure	erasure		1	1	0	1	331	52	3841	152	140	1		0	0	0	2	230	0			0				0.6999999999999999556	0	25	25	1		nan	201						140	155	125	215	245	1	wind	cloud	Planet1A.png	Ship1A.png	blank.png	fog0.png		0
6.6.1	mac	0	2024-01-08	17:23:15	1	1	1	experiment	1	getValueVector	1780		0		1	1	1	1	1	erasure	erasure		1	1	0	1	332	54	3841	152	140	1		0	0	0	2	230	0			0				0.6999999999999999556	0	25	25	1		nan	201						140	155	125	215	245	1	wind	cloud	Planet1A.png	Ship1A.png	blank.png	fog0.png		0
6.6.1	mac	0	2024-01-08	17:23:15	1	1	1	experiment	1	getValueVector	1780		0		1	1	1	1	1	erasure	erasure		1	1	0	1	333	55	3841	152	140	1		0	0	0	2	230	0			0				0.6999999999999999556	0	25	25	1		nan	201						140	155	125	215	245	1	wind	cloud	Planet1A.png	Ship1A.png	blank.png	fog0.png		0
6.6.1	mac	0	2024-01-08	17:23:15	1	1	1	experiment	1	getValueVector	1780		0		1	1	1	1	1	erasure	erasure		1	1	0	1	334	56	3841	152	140	1		0	0	0	2	230	0			0				0.6999999999999999556	0	25	25	1		nan	201						140	155	125	215	245	1	wind	cloud	Planet1A.png	Ship1A.png	blank.png	fog0.png		0
6.6.1	mac	0	2024-01-08	17:23:15	1	1	1	experiment	1	getValueVector	1780		0		1	1	1	1	1	erasure	erasure		1	1	0	1	335	58	3841	152	140	1		0	0	0	2	230	0			0				0.6999999999999999556	0	25	25	1		nan	201						140	155	125	215	245	1	wind	cloud	Planet1A.png	Ship1A.png	blank.png	fog0.png		0
6.6.1	mac	0	2024-01-08	17:23:15	1	1	1	experiment	1	getValueVector	1780		0		1	1	1	1	1	erasure	erasure		1	1	0	1	336	59	3841	152	140	1		0	0	0	2	230	0			0				0.6999999999999999556	0	25	25	1		nan	201						140	155	125	215	245	1	wind	cloud	Planet1A.png	Ship1A.png	blank.png	fog0.png		0
6.6.1	mac	0	2024-01-08	17:23:15	1	1	1	experiment	1	getValueVector	1780		0		1	1	1	1	1	erasure	erasure		1	1	0	1	337	61	3841	152	140	1		0	0	0	2	230	0			0				0.6999999999999999556	0	25	25	1		nan	201						140	155	125	215	245	1	wind	cloud	Planet1A.png	Ship1A.png	blank.png	fog0.png		0
6.6.1	mac	0	2024-01-08	17:23:15	1	1	1	experiment	1	getValueVector	1780		0		1	1	1	1	1	erasure	erasure		1	1	0	1	338	63	3841	152	140	1		0	0	0	2	230	0			0				0.6999999999999999556	0	25	25	1		nan	201						140	155	125	215	245	1	wind	cloud	Planet1A.png	Ship1A.png	blank.png	fog0.png		0
6.6.1	mac	0	2024-01-08	17:23:15	1	1	1	experiment	1	getValueVector	1780		0		1	1	1	1	1	erasure	erasure		1	1	0	1	339	64	3841	152	140	1		0	0	0	2	230	0			0				0.6999999999999999556	0	25	25	1		nan	201						140	155	125	215	245	1	wind	cloud	Planet1A.png	Ship1A.png	blank.png	fog0.png		0
6.6.1	mac	0	2024-01-08	17:23:15	1	1	1	experiment	1	getValueVector	1780		0		1	1	1	1	1	erasure	erasure		1	1	0	1	340	66	3841	152	140	1		0	0	0	2	230	0			0				0.6999999999999999556	0	25	25	1		nan	201						140	155	125	215	245	1	wind	cloud	Planet1A.png	Ship1A.png	blank.png	fog0.png		0
6.6.1	mac	0	2024-01-08	17:23:15	1	1	1	experiment	1	getValueVector	1780		0		1	1	1	1	1	erasure	erasure		1	1	0	1	341	68	3841	152	140	1		0	0	0	2	230	0			0				0.6999999999999999556	0	25	25	1		nan	201						140	155	125	215	245	1	wind	cloud	Planet1A.png	Ship1A.png	blank.png	fog0.png		0
6.6.1	mac	0	2024-01-08	17:23:15	1	1	1	experiment	1	getValueVector	1780		0		1	1	1	1	1	erasure	erasure		1	1	0	1	342	69	3841	152	140	1		0	0	0	2	230	0			0				0.6999999999999999556	0	25	25	1		nan	201						140	155	125	215	245	1	wind	cloud	Planet1A.png	Ship1A.png	blank.png	fog0.png		0
6.6.1	mac	0	2024-01-08	17:23:15	1	1	1	experiment	1	getValueVector	1780		0		1	1	1	1	1	erasure	erasure		1	1	0	1	343	71	3841	152	140	1		0	0	0	2	230	0			0				0.6999999999999999556	0	25	25	1		nan	201						140	155	125	215	245	1	wind	cloud	Planet1A.png	Ship1A.png	blank.png	fog0.png		0
6.6.1	mac	0	2024-01-08	17:23:15	1	1	1	experiment	1	getValueVector	1780		0		1	1	1	1	1	erasure	erasure		1	1	0	1	344	73	3841	152	140	1		0	0	0	2	230	0			0				0.6999999999999999556	0	25	25	1		nan	201						140	155	125	215	245	1	wind	cloud	Planet1A.png	Ship1A.png	blank.png	fog0.png		0
6.6.1	mac	0	2024-01-08	17:23:15	1	1	1	experiment	1	getValueVector	1780		0		1	1	1	1	1	erasure	erasure		1	1	0	1	345	75	3841	152	140	1		0	0	0	2	230	0			0				0.6999999999999999556	0	25	25	1		nan	201						140	155	125	215	245	1	wind	cloud	Planet1A.png	Ship1A.png	blank.png	fog0.png		0
6.6.1	mac	0	2024-01-08	17:23:15	1	1	1	experiment	1	getValueVector	1780		0		1	1	1	1	1	erasure	erasure		1	1	0	1	346	77	3841	152	140	1		0	0	0	2	230	0			0				0.6999999999999999556	0	25	25	1		nan	201						140	155	125	215	245	1	wind	cloud	Planet1A.png	Ship1A.png	blank.png	fog0.png		0
6.6.1	mac	0	2024-01-08	17:23:15	1	1	1	experiment	1	getValueVector	1780		0		1	1	1	1	1	erasure	erasure		1	1	0	1	347	79	3841	152	140	1		0	0	0	2	230	0			0				0.6999999999999999556	0	25	25	1		nan	201						140	155	125	215	245	1	wind	cloud	Planet1A.png	Ship1A.png	blank.png	fog0.png		0
6.6.1	mac	0	2024-01-08	17:23:15	1	1	1	experiment	1	getValueVector	1780		0		1	1	1	1	1	erasure	erasure		1	1	0	1	348	81	3841	152	140	1		0	0	0	2	230	0			0				0.6999999999999999556	0	25	25	1		nan	201						140	155	125	215	245	1	wind	cloud	Planet1A.png	Ship1A.png	blank.png	fog0.png		0
6.6.1	mac	0	2024-01-08	17:23:15	1	1	1	experiment	1	getValueVector	1780		0		1	1	1	1	1	erasure	erasure		1	1	0	1	349	83	3841	152	140	1		0	0	0	2	230	0			0				0.6999999999999999556	0	25	25	1		nan	201						140	155	125	215	245	1	wind	cloud	Planet1A.png	Ship1A.png	blank.png	fog0.png		0
6.6.1	mac	0	2024-01-08	17:23:15	1	1	1	experiment	1	getValueVector	1780		0		1	1	1	1	1	erasure	erasure		1	1	0	1	350	85	3841	152	140	1		0	0	0	2	230	0			0				0.6999999999999999556	0	25	25	1		nan	201						140	155	125	215	245	1	wind	cloud	Planet1A.png	Ship1A.png	blank.png	fog0.png		0
6.6.1	mac	0	2024-01-08	17:23:15	1	1	1	experiment	1	getValueVector	1780		0		1	1	1	1	1	erasure	erasure		1	1	0	1	351	87	3841	152	140	1		0	0	0	2	230	0			0				0.6999999999999999556	0	25	25	1		nan	201						140	155	125	215	245	1	wind	cloud	Planet1A.png	Ship1A.png	blank.png	fog0.png		0
6.6.1	mac	0	2024-01-08	17:23:15	1	1	1	experiment	1	getValueVector	1780		0		1	1	1	1	1	erasure	erasure		1	1	0	1	352	89	3841	152	140	1		0	0	0	2	230	0			0				0.6999999999999999556	0	25	25	1		nan	201						140	155	125	215	245	1	wind	cloud	Planet1A.png	Ship1A.png	blank.png	fog0.png		0
6.6.1	mac	0	2024-01-08	17:23:15	1	1	1	experiment	1	getValueVector	1780		0		1	1	1	1	1	erasure	erasure		1	1	0	1	353	91	3841	152	140	1		0	0	0	2	230	0			0				0.6999999999999999556	0	25	25	1		nan	201						140	155	125	215	245	1	wind	cloud	Planet1A.png	Ship1A.png	blank.png	fog0.png		0
