build	computer.platform	computer.touch	date	time	subject	group	sessionid	blockcode	blocknum	trialcode	list.ITI.currentvalue	list.preClockFreeze.currentvalue	latency	list.ISI.currentvalue	block	trialCount	trial	run_trial	block_trial	block_type	trial_type	last_block_type	generate_new_erasure	trial_since_erasure_gen	att_index	era_index	x_final	y_final	ITI_index	seed	list.era_loc.currentvalue	has_erasure	list.att_loc.currentvalue	n_clicks	n_clicks_era_only	timeout_block	timeouts_remain	stim_center_deg	startPos	pos_shifted	rt_shifted	mag	inc_rg	inc	rng	freq	choose_stim	erasure_value	current_erasure	curr_min	list.spread.nextvalue	curr_mean	curr_max	new_mean	to_h	to_l	smooth_kernel2	rt_index	erasure_RT	right_index	left_index	stim_left_deg	stim_right_deg	scanner_sync	trial_start	freeze_start	ISI_start	feedback_start	ITI_start	erasure_blocks	attentional_control	local_uncertainty	picture.planet.item.1	picture.animatedCircle.item.1	picture.feedback2.items.1	picture.stim.item.1	Earnings	totalEarnings
6.6.1	mac	0	2024-02-06	16:43:42	1	1	1	presscont	1	reminder1			624		0		0	0					1		0	0				5094						0	2		0	0	0	0	0	0		0.6999999999999999556																								0	wind	cloud	blank.png	blank.png	blank.png	fog0.png		0
6.6.1	mac	0	2024-02-06	16:43:42	1	1	1	presscont	1	reminder2			282		0		0	0					1		0	0				5094						0	2		0	0	0	0	0	0		0.6999999999999999556																								0	wind	cloud	blank.png	blank.png	blank.png	fog0.png		0
6.6.1	mac	0	2024-02-06	16:43:42	1	1	1	presscont	1	scanner_sync			1274		0		0	0					1		0	0				5094						0	2		0	0	0	0	0	0		0.6999999999999999556																		4531						0	wind	cloud	blank.png	blank.png	blank.png	fog0.png		0
6.6.1	mac	0	2024-02-06	16:43:42	1	1	1	presscont	1	countdown			1000		0		0	0					1		0	0				5094						0	2		0	0	0	0	0	0		0.6999999999999999556																		4531						0	wind	cloud	blank.png	blank.png	blank.png	fog0.png		0
6.6.1	mac	0	2024-02-06	16:43:42	1	1	1	experiment	2	clock	482	665	1699		1	1	1	1	1	erasure	erasure		1	1	0	1				5094	146	1		0	0	0	2	236	81			0				0.6999999999999999556	0	39	39	1		nan	201						146	161	131	221	251	4531	8738	8042			7539	1	wind	cloud	Planet1A.png	Ship1A.png	blank.png	fog0.png		0
6.6.1	mac	0	2024-02-06	16:43:42	1	1	1	experiment	2	feedback	482	665	699	566	1	2	1	1	1	erasure	erasure		0	1	0	1				5094	146	1		0	0	0	2	236	81	143.9279999999999972715	1999	112	112	112	0.3806651968929603003	0.6999999999999999556	0	39	39	1		nan	201					54	146	161	131	221	251	4531	8738	8042	10475	11066	7539	1	wind	cloud	Planet1A.png	Ship1A.png	Mushroom1A.png	fog0.png	0.0335999999999999979	0.0335999999999999979
6.6.1	mac	0	2024-02-06	16:43:42	1	1	1	experiment	2	clock	432	649	1542	566	1	2	2	2	2	erasure	erasure	erasure	0	2	0	1				5094	146	1		0	0	0	2	236	35			112				0.6999999999999999556	0	39	39	1		67.8340740740740812953	201	70.6055555555555542924	201	1		54	146	161	131	221	251	4531	12874	12210	10475	11066	11770	1	wind	cloud	Planet1A.png	Ship1A.png	Mushroom1A.png	fog0.png	0.0335999999999999979	0.0335999999999999979
6.6.1	mac	0	2024-02-06	16:43:42	1	1	1	experiment	2	feedback	432	649	699	299	1	3	2	2	2	erasure	erasure	erasure	0	2	0	1				5094	146	1		0	0	0	2	236	35	327.0240000000000009095	4542	51	51	51	0.5796068009407275845	0.6999999999999999556	0	39	39	1		67.8340740740740812953	201	70.6055555555555542924	201	1		237	146	161	131	221	251	4531	12874	12210	14451	14767	11770	1	wind	cloud	Planet1A.png	Ship1A.png	Mushroom1A.png	fog0.png	0.0152999999999999994	0.048899999999999999
6.6.1	mac	0	2024-02-06	16:43:42	1	1	1	experiment	2	clock	349	532	2017	299	1	3	3	3	3	erasure	erasure	erasure	0	3	0	1				5094	146	1		0	0	0	2	236	48			51				0.6999999999999999556	0	39	39	1		67.7327777777777555457	201	70.6055555555555542924	201	1		237	146	161	131	221	251	4531	16374	15824	14451	14767	15468	1	wind	cloud	Planet1A.png	Ship1A.png	Mushroom1A.png	fog0.png	0.0152999999999999994	0.048899999999999999
6.6.1	mac	0	2024-02-06	16:43:42	1	1	1	experiment	2	feedback	349	532	699	416	1	4	3	3	3	erasure	erasure	erasure	0	3	0	1				5094	146	1		0	0	0	2	236	48	48.0240000000000009095	667	4	10	4	0.2229342167784772455	0.6999999999999999556	0	39	39	1		67.7327777777777555457	201	70.6055555555555542924	201	1		318	146	161	131	221	251	4531	16374	15824	18435	18885	15468	1	wind	cloud	Planet1A.png	Ship1A.png	Mushroom1A.png	fog0.png	0.0029999999999999996	0.0519000000000000017
6.6.1	mac	0	2024-02-06	16:43:42	1	1	1	experiment	2	clock	466	516	1832	416	1	4	4	4	4	erasure	erasure	erasure	0	4	0	1				5094	146	1		0	0	0	2	236	37			4				0.6999999999999999556	0	39	39	1		67.8340740740740812953	201	70.6055555555555542924	201	1		318	146	161	131	221	251	4531	20593	20061	18435	18885	19586	1	wind	cloud	Planet1A.png	Ship1A.png	Mushroom1A.png	fog0.png	0.0029999999999999996	0.0519000000000000017
6.6.1	mac	0	2024-02-06	16:43:42	1	1	1	experiment	2	feedback	466	516	699	316	1	5	4	4	4	erasure	erasure	erasure	0	4	0	1				5094	146	1		0	0	0	2	236	37	355.1039999999999849933	4932	33	33	33	0.1108257482086368317	0.6999999999999999556	0	39	39	1		67.8340740740740812953	201	70.6055555555555542924	201	1		265	146	161	131	221	251	4531	20593	20061	22459	22803	19586	1	wind	cloud	Planet1A.png	Ship1A.png	Mushroom1A.png	fog0.png	0.0098999999999999991	0.0618000000000000008
6.6.1	mac	0	2024-02-06	16:43:42	1	1	1	experiment	2	clock	216	582	2593	316	1	5	5	5	5	erasure	erasure	erasure	0	5	0	1				5094	146	1		0	0	0	2	236	98			33				0.6999999999999999556	0	39	39	1		67.9298148148148186465	201	70.6055555555555542924	201	1		265	146	161	131	221	251	4531	24327	23729	22459	22803	23504	1	wind	cloud	Planet1A.png	Ship1A.png	Mushroom1A.png	fog0.png	0.0098999999999999991	0.0618000000000000008
6.6.1	mac	0	2024-02-06	16:43:42	1	1	1	experiment	2	feedback	216	582	699	582	1	6	5	5	5	erasure	erasure	erasure	0	5	0	1				5094	146	1		0	0	0	2	236	98	269.4959999999999809006	3743	62	62	62	0.565798913726070607	0.6999999999999999556	0	39	39	1		67.9298148148148186465	201	70.6055555555555542924	201	1		179	146	161	131	221	251	4531	24327	23729	26955	27553	23504	1	wind	cloud	Planet1A.png	Ship1A.png	Mushroom1A.png	fog0.png	0.0185999999999999985	0.0803999999999999992
6.6.1	mac	0	2024-02-06	16:43:42	1	1	1	experiment	2	clock	282	599	2367	582	1	6	6	6	6	erasure	erasure	erasure	0	6	0	1				5094	146	1		0	0	0	2	236	21			62				0.6999999999999999556	0	39	39	1		67.8340740740740812953	201	70.6055555555555542924	201	1		179	146	161	131	221	251	4531	29161	28544	26955	27553	28255	1	wind	cloud	Planet1A.png	Ship1A.png	Mushroom1A.png	fog0.png	0.0185999999999999985	0.0803999999999999992
6.6.1	mac	0	2024-02-06	16:43:42	1	1	1	experiment	2	feedback	282	599	699	249	1	7	6	6	6	erasure	erasure	erasure	0	6	0	1				5094	146	1		0	0	0	2	236	21	336.0240000000000009095	4667	45	10	10	0.8947383463137639215	0.6999999999999999556	0	39	39	1		67.8340740740740812953	201	70.6055555555555542924	201	1		246	146	161	131	221	251	4531	29161	28544	31563	31838	28255	1	wind	cloud	Planet1A.png	Ship1A.png	Mushroom1A.png	fog0.png	0.0029999999999999996	0.0834000000000000019
6.6.1	mac	0	2024-02-06	16:43:42	1	1	1	experiment	2	clock	449	682	2304	249	1	7	7	7	7	erasure	erasure	erasure	0	7	0	1				5094	146	1		0	0	0	2	236	32			45				0.6999999999999999556	0	39	39	1		67.9298148148148186465	201	70.6055555555555542924	201	1		246	146	161	131	221	251	4531	33695	32997	31563	31838	32539	1	wind	cloud	Planet1A.png	Ship1A.png	Mushroom1A.png	fog0.png	0.0029999999999999996	0.0834000000000000019
6.6.1	mac	0	2024-02-06	16:43:42	1	1	1	experiment	2	feedback	449	682	699	599	1	8	7	7	7	erasure	erasure	erasure	0	7	0	1				5094	146	1		0	0	0	2	236	32	11.08799999999999919	154	24	24	24	0.670426792155584983	0.6999999999999999556	0	39	39	1		67.9298148148148186465	201	70.6055555555555542924	201	1		281	146	161	131	221	251	4531	33695	32997	36034	36656	32539	1	wind	cloud	Planet1A.png	Ship1A.png	Mushroom1A.png	fog0.png	0.0071999999999999998	0.0906
6.6.1	mac	0	2024-02-06	16:43:42	1	1	1	experiment	2	clock	366	699	4281	599	1	8	8	8	8	erasure	erasure	erasure	0	8	0	1				5094	146	1		0	0	0	2	236	54			24				0.6999999999999999556	0	39	39	1		67.6259259259258982411	201	70.6055555555555542924	201	1		281	146	161	131	221	251	4531	38448	37733	36034	36656	37358	1	wind	cloud	Planet1A.png	Ship1A.png	Mushroom1A.png	fog0.png	0.0071999999999999998	0.0906
6.6.1	mac	0	2024-02-06	16:43:42	1	1	1	experiment	2	feedback	366	699	699	332	1	9	8	8	8	erasure	erasure	erasure	0	8	0	1				5094	146	1		1	1	0	2	236	54	232.6320000000000050022	3231	48.528000000000005798	48	48.528000000000005798	0.2775023270578827472	0.6999999999999999556	1	39	39	1		67.6259259259258982411	201	70.6055555555555542924	201	1		143	146	161	131	221	251	4531	38448	37733	42762	43115	37358	1	wind	cloud	Planet1A.png	Ship1A.png	Mushroom1A.png	fog0.png	0.0143999999999999996	0.1049999999999999961
6.6.1	mac	0	2024-02-06	16:43:42	1	1	1	experiment	2	clock	249	566	2998	332	1	9	9	9	9	erasure	erasure	erasure	0	9	0	1				5094	146	1		1	1	0	2	236	80			48.528000000000005798				0.6999999999999999556	1	39	39	1		67.7327777777777555457	201	70.6055555555555542924	201	1		143	146	161	131	221	251	4531	44667	44076	42762	43115	43817	1	wind	cloud	Planet1A.png	Ship1A.png	Mushroom1A.png	fog0.png	0.0143999999999999996	0.1049999999999999961
6.6.1	mac	0	2024-02-06	16:43:42	1	1	1	experiment	2	feedback	249	566	699	216	1	10	9	9	9	erasure	erasure	erasure	0	9	0	1				5094	146	1		2	2	0	2	236	80	233.855999999999994543	3248	44.7896296296296370087	45	44.7896296296296370087	0.5717850526729097993	0.6999999999999999556	1	39	39	1		67.7327777777777555457	201	70.6055555555555542924	201	1		144	146	161	131	221	251	4531	44667	44076	47699	47943	43817	1	wind	cloud	Planet1A.png	Ship1A.png	Mushroom1A.png	fog0.png	0.0134999999999999981	0.1184999999999999942
6.6.1	mac	0	2024-02-06	16:43:42	1	1	1	experiment	2	clock	399	632	268	216	1	10	10	10	10	erasure	no erasure	erasure	0	10	0	1				5094	146	0			0	1	1	236	37			44.7896296296296370087				0.6999999999999999556		39	39	1		67.6259259259258982411	201	70.6055555555555542924	201	1		144	146	161	131	221	251	4531	49700	49052	47699	47943	48645	1	wind	cloud	Planet1A.png	Ship1A.png	Mushroom1A.png	blank.png	0.0134999999999999981	0.1184999999999999942
6.6.1	mac	0	2024-02-06	16:43:42	1	1	1	experiment	2	feedback	399	632	699	482	1	11	10	10	10	erasure	no erasure	erasure	0	10	0	1				5094	146	0			0	1	1	236	37	242.4960000000000093223	3368	40.119999999999997442	10	10	0.9076643136580624383	0.6999999999999999556		39	39	1		67.6259259259258982411	201	70.6055555555555542924	201	1		152	146	161	131	221	251	4531	49700	49052	50003	50509	48645	1	wind	cloud	Planet1A.png	Ship1A.png	Mushroom1A.png	blank.png	0.0029999999999999996	0.1214999999999999969
6.6.1	mac	0	2024-02-06	16:43:42	1	1	1	experiment	2	clock	499	499	678	482	1	11	11	11	1	attention	attention	erasure	0	11	1	1				5094	146	0	233	0	0	0	1	323	34			40.119999999999997442				0.6999999999999999556	0	39	39	1		67.6259259259258982411	201	70.6055555555555542924	201	1		152	146	161	131	308	338	4531	52218	51713	50003	50509	51210	1	wind	cloud	Planet1A.png	Ship1A.png	Mushroom1A.png	wind0.png	0.0029999999999999996	0.1214999999999999969
6.6.1	mac	0	2024-02-06	16:43:42	1	1	1	experiment	2	feedback	499	499	699	266	1	12	11	11	1	attention	attention	erasure	0	11	1	1				5094	146	0	233	0	0	0	1	323	34	261.2160000000000081855	3628	65	65	65	0.0506012847299224869	0.6999999999999999556	0	39	39	1		67.6259259259258982411	201	70.6055555555555542924	201	1		171	146	161	131	308	338	4531	52218	51713	52930	53211	51210	1	wind	cloud	Planet1A.png	Ship1A.png	Mushroom1A.png	wind0.png	0.0195	0.1409999999999999865
6.6.1	mac	0	2024-02-06	16:43:42	1	1	1	experiment	2	clock	116	615	85	266	1	12	12	12	2	attention	attention	attention	0	12	1	1				5094	146	0	233	0	0	0	1	323	51			65				0.6999999999999999556	0	84	39	1		70.6055555555555542924	201	70.6055555555555542924	201	1	129	171	146	161	131	308	338	4531	54651	54033	52930	53211	53913	1	wind	cloud	Planet1A.png	Ship1A.png	Mushroom1A.png	wind0.png	0.0195	0.1409999999999999865
6.6.1	mac	0	2024-02-06	16:43:42	1	1	1	experiment	2	feedback	116	615	699	532	1	13	12	12	2	attention	attention	attention	0	12	1	1				5094	146	0	233	0	0	0	1	323	51	279.7200000000000272848	3885	61	10	10	0.9504199109390424338	0.6999999999999999556	0	84	39	1		70.6055555555555542924	201	70.6055555555555542924	201	1	129	190	146	161	131	308	338	4531	54651	54033	54771	55327	53913	1	wind	cloud	Planet1A.png	Ship1A.png	Mushroom1A.png	wind0.png	0.0029999999999999996	0.1439999999999999891
6.6.1	mac	0	2024-02-06	16:43:42	1	1	1	experiment	2	clock	232	549	94	532	1	13	13	13	3	attention	attention	attention	0	13	1	1				5094	146	0	233	0	0	0	1	323	73			61				0.6999999999999999556	0	108	39	1		70.6055555555555542924	201	70.6055555555555542924	201	1	132	190	146	161	131	308	338	4531	56818	56263	54771	55327	56027	1	wind	cloud	Planet1A.png	Ship1A.png	Mushroom1A.png	wind0.png	0.0029999999999999996	0.1439999999999999891
6.6.1	mac	0	2024-02-06	16:43:42	1	1	1	experiment	2	feedback	232	549	699	516	1	14	13	13	3	attention	attention	attention	0	13	1	1				5094	146	0	233	0	0	0	1	323	73	359.5679999999999836291	4994	31	10	10	0.7065373337144351673	0.6999999999999999556	0	108	39	1		70.6055555555555542924	201	70.6055555555555542924	201	1	132	270	146	161	131	308	338	4531	56818	56263	56947	57478	56027	1	wind	cloud	Planet1A.png	Ship1A.png	Mushroom1A.png	wind0.png	0.0029999999999999996	0.1469999999999999918
6.6.1	mac	0	2024-02-06	16:43:42	1	1	1	experiment	2	clock	299	516	374	516	1	14	14	14	4	attention	attention	attention	0	14	1	1				5094	146	0	233	0	0	0	1	323	50			31				0.6999999999999999556	0	115.5	39	1		70.6055555555555542924	201	65.772222222222225696	187	1	123	270	146	161	131	308	338	4531	59003	58483	56947	57478	58180	1	wind	cloud	Planet1A.png	Ship1A.png	Mushroom1A.png	wind0.png	0.0029999999999999996	0.1469999999999999918
6.6.1	mac	0	2024-02-06	16:43:42	1	1	1	experiment	2	feedback	299	516	699	466	1	15	14	14	4	attention	attention	attention	0	14	1	1				5094	146	0	233	0	0	0	1	323	50	296.9279999999999972715	4124	55	10	10	0.8878765066358904612	0.6999999999999999556	0	115.5	39	1		70.6055555555555542924	201	65.772222222222225696	187	1	123	207	146	161	131	308	338	4531	59003	58483	59411	59896	58180	1	wind	cloud	Planet1A.png	Ship1A.png	Mushroom1A.png	wind0.png	0.0029999999999999996	0.1499999999999999944
6.6.1	mac	0	2024-02-06	16:43:42	1	1	1	experiment	2	clock	149	649	797	466	1	15	15	15	5	attention	attention	attention	0	15	1	1				5094	146	0	233	0	0	0	1	323	17			55				0.6999999999999999556	0	113.75	39	1		65.772222222222225696	187	60.9527777777777757251	173	1	112	207	146	161	131	308	338	4531	61403	60749	59411	59896	60596	1	wind	cloud	Planet1A.png	Ship1A.png	Mushroom1A.png	wind0.png	0.0029999999999999996	0.1499999999999999944
6.6.1	mac	0	2024-02-06	16:43:42	1	1	1	experiment	2	feedback	149	649	699	382	1	16	15	15	5	attention	attention	attention	0	15	1	1				5094	146	0	233	0	0	0	1	323	17	208.5840000000000031832	2897	141	141	141	0.1229036080471481163	0.6999999999999999556	0	113.75	39	1		65.772222222222225696	187	60.9527777777777757251	173	1	112	119	146	161	131	308	338	4531	61403	60749	62235	62637	60596	1	wind	cloud	Planet1A.png	Ship1A.png	Mushroom1A.png	wind0.png	0.0422999999999999973	0.1922999999999999987
6.6.1	mac	0	2024-02-06	16:43:42	1	1	1	experiment	2	clock	382	699	1187	382	1	16	16	16	6	attention	attention	attention	0	16	1	1				5094	146	0	233	0	0	0	1	323	56			141				0.6999999999999999556	0	108.375	39	1		60.9527777777777757251	173	56.1499999999999985789	159	1	103	119	146	161	131	308	338	4531	64437	63724	62235	62637	63338	1	wind	cloud	Planet1A.png	Ship1A.png	Mushroom1A.png	wind0.png	0.0422999999999999973	0.1922999999999999987
6.6.1	mac	0	2024-02-06	16:43:42	1	1	1	experiment	2	feedback	382	699	699	499	1	17	16	16	6	attention	attention	attention	0	16	1	1				5094	146	0	233	0	0	0	1	323	56	17.0640000000000000568	237	15	15	15	0.4054214589776055644	0.6999999999999999556	0	108.375	39	1		60.9527777777777757251	173	56.1499999999999985789	159	1	103	287	146	161	131	308	338	4531	64437	63724	65659	66180	63338	1	wind	cloud	Planet1A.png	Ship1A.png	Mushroom1A.png	wind0.png	0.0044999999999999997	0.1968000000000000027
6.6.1	mac	0	2024-02-06	16:43:42	1	1	1	experiment	2	clock	416	499	978	499	1	17	17	17	7	attention	attention	attention	0		1	1				5094	146	0	233	0	0	0	1	323	53			15				0.6999999999999999556	0	108.375	39	1		56.1499999999999985789	159	56.1499999999999985789	159	1	103	287	146	161	131	308	338	4531	67822	67311	65659	66180	66882	1	wind	cloud	Planet1A.png	Ship1A.png	Mushroom1A.png	wind0.png	0.0044999999999999997	0.1968000000000000027
6.6.1	mac	0	2024-02-06	16:43:42	1	1	1	experiment	2	feedback	416	499	699	432	1	18	17	17	7	attention	attention	attention	0		1	1				5094	146	0	233	0	0	0	1	323	53	351.2160000000000081855	4878	26	10	10	0.7329517811846341102	0.6999999999999999556	0	108.375	39	1		56.1499999999999985789	159	56.1499999999999985789	159	1	103	261	146	161	131	308	338	4531	67822	67311	68835	69281	66882	1	wind	cloud	Planet1A.png	Ship1A.png	Mushroom1A.png	wind0.png	0.0029999999999999996	0.1998000000000000054
6.6.1	mac	0	2024-02-06	16:43:42	1	1	1	experiment	2	clock	182	582	1340	432	1	18	18	18	8	attention	attention	attention	0		1	1				5094	146	0	233	0	0	0	1	323	96			26				0.6999999999999999556	0	108.375	39	1		51.3138888888888899942	146	56.1499999999999985789	159	1	103	261	146	161	131	308	338	4531	70755	70169	68835	69281	69982	1	wind	cloud	Planet1A.png	Ship1A.png	Mushroom1A.png	wind0.png	0.0029999999999999996	0.1998000000000000054
6.6.1	mac	0	2024-02-06	16:43:42	1	1	1	experiment	2	feedback	182	582	699	282	1	19	18	18	8	attention	attention	attention	0		1	1				5094	146	0	233	0	0	0	1	323	96	172.0800000000000125056	2390	124	10	10	0.7440399119500163971	0.6999999999999999556	0	108.375	39	1		51.3138888888888899942	146	56.1499999999999985789	159	1	103	82	146	161	131	308	338	4531	70755	70169	72132	72449	69982	1	wind	cloud	Planet1A.png	Ship1A.png	Mushroom1A.png	wind0.png	0.0029999999999999996	0.202800000000000008
6.6.1	mac	0	2024-02-06	16:43:42	1	1	1	experiment	2	clock	132	632	1453	282	1	19	19	19	9	attention	attention	attention	0		1	1				5094	146	0	233	0	0	0	1	323	33			124				0.6999999999999999556	0	108.375	39	1		46.5166666666666657193	132	56.1499999999999985789	159	1	103	82	146	161	131	308	338	4531	73922	73285	72132	72449	73150	1	wind	cloud	Planet1A.png	Ship1A.png	Mushroom1A.png	wind0.png	0.0029999999999999996	0.202800000000000008
6.6.1	mac	0	2024-02-06	16:43:42	1	1	1	experiment	2	feedback	132	632	699	399	1	20	19	19	9	attention	attention	attention	0		1	1				5094	146	0	233	1	0	0	1	323	33	313.4159999999999968168	4353	33	33	33	0.3340038611399950286	0.6999999999999999556	1	108.375	39	1		46.5166666666666657193	132	56.1499999999999985789	159	1	103	223	146	161	131	308	338	4531	73922	73285	75411	75833	73150	1	wind	cloud	Planet1A.png	Ship1A.png	Mushroom1A.png	wind0.png	0.0098999999999999991	0.2127000000000000002
6.6.1	mac	0	2024-02-06	16:43:42	1	1	1	experiment	2	clock	199	532	1158	399	1	20	20	20	10	attention	attention	attention	0		1	1				5094	146	0	233	0	0	0	1	323	70			33				0.6999999999999999556	0	108.375	39	1		41.6861111111111100058	118	56.1499999999999985789	159	1	103	223	146	161	131	308	338	4531	77274	76737	75411	75833	76534	1	wind	cloud	Planet1A.png	Ship1A.png	Mushroom1A.png	wind0.png	0.0098999999999999991	0.2127000000000000002
6.6.1	mac	0	2024-02-06	16:43:42	1	1	1	experiment	2	feedback	199	532	699	366	1	21	20	20	10	attention	attention	attention	0		1	1				5094	146	0	233	0	0	0	1	323	70	65.3760000000000047748	908	1	10	1	0.1510955617183576127	0.6999999999999999556	0	108.375	39	1		41.6861111111111100058	118	56.1499999999999985789	159	1	103	335	146	161	131	308	338	4531	77274	76737	78467	78851	76534	1	wind	cloud	Planet1A.png	Ship1A.png	Mushroom1A.png	wind0.png	0.0029999999999999996	0.2157000000000000028
6.6.1	mac	0	2024-02-06	16:43:42	1	1	1	experiment	2	clock	316	615	1532	366	1	21	21	21	1	no erasure	no erasure	attention	0		1	1				5094	146	0	233		0	0	1	323	60			1				0.6999999999999999556		108.375	39	1		36.8777777777777799884	104	56.1499999999999985789	159	1	103	335	146	161	131	308	338	4531	80491	79871	78467	78851	79552	1	wind	cloud	Planet1A.png	Ship1A.png	Mushroom1A.png	blank.png	0.0029999999999999996	0.2157000000000000028
6.6.1	mac	0	2024-02-06	16:43:42	1	1	1	experiment	2	feedback	316	615	699	449	1	22	21	21	1	no erasure	no erasure	attention	0		1	1				5094	146	0	233		0	0	1	323	60	56.3040000000000020464	782	1	10	10	0.9417726925904332802	0.6999999999999999556		108.375	39	1		36.8777777777777799884	104	56.1499999999999985789	159	1	103	326	146	161	131	308	338	4531	80491	79871	82059	82535	79552	1	wind	cloud	Planet1A.png	Ship1A.png	Mushroom1A.png	blank.png	0.0029999999999999996	0.2187000000000000055
6.6.1	mac	0	2024-02-06	16:43:42	1	1	1	experiment	2	clock	99	682	1422	449	1	22	22	22	2	no erasure	no erasure	no erasure	0		1	1				5094	146	0	233		0	0	1	323	4			1				0.6999999999999999556		108.375	39	1		32.0583333333333300175	90	56.1499999999999985789	159	1	103	326	146	161	131	308	338	4531	84026	83338	82059	82535	83236	1	wind	cloud	Planet1A.png	Ship1A.png	Mushroom1A.png	blank.png	0.0029999999999999996	0.2187000000000000055
6.6.1	mac	0	2024-02-06	16:43:42	1	1	1	experiment	2	feedback	99	682	699	349	1	23	22	22	2	no erasure	no erasure	no erasure	0		1	1				5094	146	0	233		0	0	1	323	4	206.7839999999999918145	2872	60	60	60	0.0255081160053396878	0.6999999999999999556		108.375	39	1		32.0583333333333300175	90	56.1499999999999985789	159	1	103	117	146	161	131	308	338	4531	84026	83338	85483	85852	83236	1	wind	cloud	Planet1A.png	Ship1A.png	Mushroom1A.png	blank.png	0.0179999999999999986	0.2366999999999999937
6.6.1	mac	0	2024-02-06	16:43:42	1	1	1	experiment	2	clock	266	599	758	349	1	23	23	23	3	no erasure	no erasure	no erasure	0		1	1				5094	146	0	233		0	0	1	323	12			60				0.6999999999999999556		108.375	39	1		27.2111111111111121375	76	56.1499999999999985789	159	1	103	117	146	161	131	308	338	4531	87427	86822	85483	85852	86553	1	wind	cloud	Planet1A.png	Ship1A.png	Mushroom1A.png	blank.png	0.0179999999999999986	0.2366999999999999937
6.6.1	mac	0	2024-02-06	16:43:42	1	1	1	experiment	2	feedback	266	599	699	549	1	24	23	23	3	no erasure	no erasure	no erasure	0		1	1				5094	146	0	233		0	0	1	323	12	187.7760000000000104592	2608	62	62	62	0.0195136740849152397	0.6999999999999999556		108.375	39	1		27.2111111111111121375	76	56.1499999999999985789	159	1	103	98	146	161	131	308	338	4531	87427	86822	88219	88787	86553	1	wind	cloud	Planet1A.png	Ship1A.png	Mushroom1A.png	blank.png	0.0185999999999999985	0.2552999999999999714
6.6.1	mac	0	2024-02-06	16:43:42	1	1	1	experiment	2	clock	166	566	174	549	1	24	24	24	4	no erasure	no erasure	no erasure	0		1	1				5094	146	0	233		0	0	1	323	62			62				0.6999999999999999556		108.375	39	1		22.3999999999999985789	63	56.1499999999999985789	159	1	103	98	146	161	131	308	338	4531	90228	89657	88219	88787	89487	1	wind	cloud	Planet1A.png	Ship1A.png	Mushroom1A.png	blank.png	0.0185999999999999985	0.2552999999999999714
