build	computer.platform	computer.touch	date	time	subject	group	sessionid	blockcode	blocknum	trialcode	list.ITI.currentvalue	list.preClockFreeze.currentvalue	latency	list.ISI.currentvalue	block	trialCount	trial	run_trial	block_trial	block_type	trial_type	last_block_type	generate_new_erasure	trial_since_erasure_gen	att_index	era_index	x_final	y_final	ITI_index	seed	list.era_loc.currentvalue	has_erasure	list.att_loc.currentvalue	n_clicks	n_clicks_era_only	timeout_block	timeouts_remain	stim_center_deg	startPos	pos_shifted	rt_shifted	mag	inc_rg	inc	rng	freq	choose_stim	erasure_value	current_erasure	curr_min	list.spread.nextvalue	curr_mean	curr_max	new_mean	to_h	to_l	smooth_kernel2	rt_index	erasure_RT	right_index	left_index	stim_left_deg	stim_right_deg	scanner_sync	trial_start	freeze_start	ISI_start	feedback_start	ITI_start	erasure_blocks	attentional_control	local_uncertainty	picture.planet.item.1	picture.animatedCircle.item.1	picture.feedback2.items.1	picture.stim.item.1	Earnings	totalEarnings
6.6.1	mac	0	2024-01-24	17:01:21	1	1	1	presscont	1	scanner_sync			1005		0		0	0					1		0	0			21121	5173						0	2		0	0	0	0	0	0		0.6999999999999999556																		17:01:26						0	wind	cloud	blank.png	blank.png	blank.png	fog0.png		0
6.6.1	mac	0	2024-01-24	17:01:21	1	1	1	presscont	1	countdown			1000		0		0	0					1		0	0			21121	5173						0	2		0	0	0	0	0	0		0.6999999999999999556																		17:01:26						0	wind	cloud	blank.png	blank.png	blank.png	fog0.png		0
6.6.1	mac	0	2024-01-24	17:01:21	1	1	1	experiment	2	getValueVector	2970		0		1	1	1	1	1	no erasure	no erasure		1		0	0	1	88	21121	5173		0			0	0	2		0			0				0.6999999999999999556				0		nan	0											17:01:26	17:01:29					0	wind	cloud	Planet1A.png	Ship1A.png	blank.png	blank.png		0
6.6.1	mac	0	2024-01-24	17:01:21	1	1	1	experiment	2	getValueVector	2970		0		1	1	1	1	1	no erasure	no erasure		1		0	0	2	90	21121	5173		0			0	0	2		0			0				0.6999999999999999556				0		nan	0											17:01:26	17:01:29					0	wind	cloud	Planet1A.png	Ship1A.png	blank.png	blank.png		0
6.6.1	mac	0	2024-01-24	17:01:21	1	1	1	experiment	2	getValueVector	2970		0		1	1	1	1	1	no erasure	no erasure		1		0	0	3	93	21121	5173		0			0	0	2		0			0				0.6999999999999999556				0		nan	0											17:01:26	17:01:29					0	wind	cloud	Planet1A.png	Ship1A.png	blank.png	blank.png		0
6.6.1	mac	0	2024-01-24	17:01:21	1	1	1	experiment	2	getValueVector	2970		0		1	1	1	1	1	no erasure	no erasure		1		0	0	4	95	21121	5173		0			0	0	2		0			0				0.6999999999999999556				0		nan	0											17:01:26	17:01:29					0	wind	cloud	Planet1A.png	Ship1A.png	blank.png	blank.png		0
6.6.1	mac	0	2024-01-24	17:01:21	1	1	1	experiment	2	getValueVector	2970		0		1	1	1	1	1	no erasure	no erasure		1		0	0	5	98	21121	5173		0			0	0	2		0			0				0.6999999999999999556				0		nan	0											17:01:26	17:01:29					0	wind	cloud	Planet1A.png	Ship1A.png	blank.png	blank.png		0
6.6.1	mac	0	2024-01-24	17:01:21	1	1	1	experiment	2	getValueVector	2970		0		1	1	1	1	1	no erasure	no erasure		1		0	0	6	101	21121	5173		0			0	0	2		0			0				0.6999999999999999556				0		nan	0											17:01:26	17:01:29					0	wind	cloud	Planet1A.png	Ship1A.png	blank.png	blank.png		0
6.6.1	mac	0	2024-01-24	17:01:21	1	1	1	experiment	2	getValueVector	2970		0		1	1	1	1	1	no erasure	no erasure		1		0	0	7	104	21121	5173		0			0	0	2		0			0				0.6999999999999999556				0		nan	0											17:01:26	17:01:29					0	wind	cloud	Planet1A.png	Ship1A.png	blank.png	blank.png		0
6.6.1	mac	0	2024-01-24	17:01:21	1	1	1	experiment	2	getValueVector	2970		0		1	1	1	1	1	no erasure	no erasure		1		0	0	8	107	21121	5173		0			0	0	2		0			0				0.6999999999999999556				0		nan	0											17:01:26	17:01:29					0	wind	cloud	Planet1A.png	Ship1A.png	blank.png	blank.png		0
6.6.1	mac	0	2024-01-24	17:01:21	1	1	1	experiment	2	getValueVector	2970		0		1	1	1	1	1	no erasure	no erasure		1		0	0	9	109	21121	5173		0			0	0	2		0			0				0.6999999999999999556				0		nan	0											17:01:26	17:01:29					0	wind	cloud	Planet1A.png	Ship1A.png	blank.png	blank.png		0
6.6.1	mac	0	2024-01-24	17:01:21	1	1	1	experiment	2	getValueVector	2970		0		1	1	1	1	1	no erasure	no erasure		1		0	0	10	112	21121	5173		0			0	0	2		0			0				0.6999999999999999556				0		nan	0											17:01:26	17:01:29					0	wind	cloud	Planet1A.png	Ship1A.png	blank.png	blank.png		0
6.6.1	mac	0	2024-01-24	17:01:21	1	1	1	experiment	2	getValueVector	2970		0		1	1	1	1	1	no erasure	no erasure		1		0	0	11	115	21121	5173		0			0	0	2		0			0				0.6999999999999999556				0		nan	0											17:01:26	17:01:29					0	wind	cloud	Planet1A.png	Ship1A.png	blank.png	blank.png		0
6.6.1	mac	0	2024-01-24	17:01:21	1	1	1	experiment	2	getValueVector	2970		0		1	1	1	1	1	no erasure	no erasure		1		0	0	12	118	21121	5173		0			0	0	2		0			0				0.6999999999999999556				0		nan	0											17:01:26	17:01:29					0	wind	cloud	Planet1A.png	Ship1A.png	blank.png	blank.png		0
6.6.1	mac	0	2024-01-24	17:01:21	1	1	1	experiment	2	getValueVector	2970		0		1	1	1	1	1	no erasure	no erasure		1		0	0	13	121	21121	5173		0			0	0	2		0			0				0.6999999999999999556				0		nan	0											17:01:26	17:01:29					0	wind	cloud	Planet1A.png	Ship1A.png	blank.png	blank.png		0
6.6.1	mac	0	2024-01-24	17:01:21	1	1	1	experiment	2	getValueVector	2970		0		1	1	1	1	1	no erasure	no erasure		1		0	0	14	124	21121	5173		0			0	0	2		0			0				0.6999999999999999556				0		nan	0											17:01:26	17:01:29					0	wind	cloud	Planet1A.png	Ship1A.png	blank.png	blank.png		0
6.6.1	mac	0	2024-01-24	17:01:21	1	1	1	experiment	2	getValueVector	2970		0		1	1	1	1	1	no erasure	no erasure		1		0	0	15	127	21121	5173		0			0	0	2		0			0				0.6999999999999999556				0		nan	0											17:01:26	17:01:29					0	wind	cloud	Planet1A.png	Ship1A.png	blank.png	blank.png		0
6.6.1	mac	0	2024-01-24	17:01:21	1	1	1	experiment	2	getValueVector	2970		0		1	1	1	1	1	no erasure	no erasure		1		0	0	16	130	21121	5173		0			0	0	2		0			0				0.6999999999999999556				0		nan	0											17:01:26	17:01:29					0	wind	cloud	Planet1A.png	Ship1A.png	blank.png	blank.png		0
6.6.1	mac	0	2024-01-24	17:01:21	1	1	1	experiment	2	getValueVector	2970		0		1	1	1	1	1	no erasure	no erasure		1		0	0	17	133	21121	5173		0			0	0	2		0			0				0.6999999999999999556				0		nan	0											17:01:26	17:01:29					0	wind	cloud	Planet1A.png	Ship1A.png	blank.png	blank.png		0
6.6.1	mac	0	2024-01-24	17:01:21	1	1	1	experiment	2	getValueVector	2970		0		1	1	1	1	1	no erasure	no erasure		1		0	0	18	136	21121	5173		0			0	0	2		0			0				0.6999999999999999556				0		nan	0											17:01:26	17:01:29					0	wind	cloud	Planet1A.png	Ship1A.png	blank.png	blank.png		0
6.6.1	mac	0	2024-01-24	17:01:21	1	1	1	experiment	2	getValueVector	2970		0		1	1	1	1	1	no erasure	no erasure		1		0	0	19	139	21121	5173		0			0	0	2		0			0				0.6999999999999999556				0		nan	0											17:01:26	17:01:29					0	wind	cloud	Planet1A.png	Ship1A.png	blank.png	blank.png		0
6.6.1	mac	0	2024-01-24	17:01:21	1	1	1	experiment	2	getValueVector	2970		0		1	1	1	1	1	no erasure	no erasure		1		0	0	20	142	21121	5173		0			0	0	2		0			0				0.6999999999999999556				0		nan	0											17:01:26	17:01:29					0	wind	cloud	Planet1A.png	Ship1A.png	blank.png	blank.png		0
6.6.1	mac	0	2024-01-24	17:01:21	1	1	1	experiment	2	getValueVector	2970		0		1	1	1	1	1	no erasure	no erasure		1		0	0	21	145	21121	5173		0			0	0	2		0			0				0.6999999999999999556				0		nan	0											17:01:26	17:01:29					0	wind	cloud	Planet1A.png	Ship1A.png	blank.png	blank.png		0
6.6.1	mac	0	2024-01-24	17:01:21	1	1	1	experiment	2	getValueVector	2970		0		1	1	1	1	1	no erasure	no erasure		1		0	0	22	148	21121	5173		0			0	0	2		0			0				0.6999999999999999556				0		nan	0											17:01:26	17:01:29					0	wind	cloud	Planet1A.png	Ship1A.png	blank.png	blank.png		0
6.6.1	mac	0	2024-01-24	17:01:21	1	1	1	experiment	2	getValueVector	2970		0		1	1	1	1	1	no erasure	no erasure		1		0	0	23	151	21121	5173		0			0	0	2		0			0				0.6999999999999999556				0		nan	0											17:01:26	17:01:29					0	wind	cloud	Planet1A.png	Ship1A.png	blank.png	blank.png		0
6.6.1	mac	0	2024-01-24	17:01:21	1	1	1	experiment	2	getValueVector	2970		0		1	1	1	1	1	no erasure	no erasure		1		0	0	24	154	21121	5173		0			0	0	2		0			0				0.6999999999999999556				0		nan	0											17:01:26	17:01:29					0	wind	cloud	Planet1A.png	Ship1A.png	blank.png	blank.png		0
6.6.1	mac	0	2024-01-24	17:01:21	1	1	1	experiment	2	getValueVector	2970		0		1	1	1	1	1	no erasure	no erasure		1		0	0	25	157	21121	5173		0			0	0	2		0			0				0.6999999999999999556				0		nan	0											17:01:26	17:01:29					0	wind	cloud	Planet1A.png	Ship1A.png	blank.png	blank.png		0
6.6.1	mac	0	2024-01-24	17:01:21	1	1	1	experiment	2	getValueVector	2970		0		1	1	1	1	1	no erasure	no erasure		1		0	0	26	160	21121	5173		0			0	0	2		0			0				0.6999999999999999556				0		nan	0											17:01:26	17:01:29					0	wind	cloud	Planet1A.png	Ship1A.png	blank.png	blank.png		0
6.6.1	mac	0	2024-01-24	17:01:21	1	1	1	experiment	2	getValueVector	2970		0		1	1	1	1	1	no erasure	no erasure		1		0	0	27	162	21121	5173		0			0	0	2		0			0				0.6999999999999999556				0		nan	0											17:01:26	17:01:29					0	wind	cloud	Planet1A.png	Ship1A.png	blank.png	blank.png		0
6.6.1	mac	0	2024-01-24	17:01:21	1	1	1	experiment	2	getValueVector	2970		0		1	1	1	1	1	no erasure	no erasure		1		0	0	28	165	21121	5173		0			0	0	2		0			0				0.6999999999999999556				0		nan	0											17:01:26	17:01:29					0	wind	cloud	Planet1A.png	Ship1A.png	blank.png	blank.png		0
6.6.1	mac	0	2024-01-24	17:01:21	1	1	1	experiment	2	getValueVector	2970		0		1	1	1	1	1	no erasure	no erasure		1		0	0	29	168	21121	5173		0			0	0	2		0			0				0.6999999999999999556				0		nan	0											17:01:26	17:01:29					0	wind	cloud	Planet1A.png	Ship1A.png	blank.png	blank.png		0
6.6.1	mac	0	2024-01-24	17:01:21	1	1	1	experiment	2	getValueVector	2970		0		1	1	1	1	1	no erasure	no erasure		1		0	0	30	170	21121	5173		0			0	0	2		0			0				0.6999999999999999556				0		nan	0											17:01:26	17:01:29					0	wind	cloud	Planet1A.png	Ship1A.png	blank.png	blank.png		0
6.6.1	mac	0	2024-01-24	17:01:21	1	1	1	experiment	2	getValueVector	2970		0		1	1	1	1	1	no erasure	no erasure		1		0	0	31	173	21121	5173		0			0	0	2		0			0				0.6999999999999999556				0		nan	0											17:01:26	17:01:29					0	wind	cloud	Planet1A.png	Ship1A.png	blank.png	blank.png		0
6.6.1	mac	0	2024-01-24	17:01:21	1	1	1	experiment	2	getValueVector	2970		0		1	1	1	1	1	no erasure	no erasure		1		0	0	32	175	21121	5173		0			0	0	2		0			0				0.6999999999999999556				0		nan	0											17:01:26	17:01:29					0	wind	cloud	Planet1A.png	Ship1A.png	blank.png	blank.png		0
6.6.1	mac	0	2024-01-24	17:01:21	1	1	1	experiment	2	getValueVector	2970		0		1	1	1	1	1	no erasure	no erasure		1		0	0	33	178	21121	5173		0			0	0	2		0			0				0.6999999999999999556				0		nan	0											17:01:26	17:01:29					0	wind	cloud	Planet1A.png	Ship1A.png	blank.png	blank.png		0
6.6.1	mac	0	2024-01-24	17:01:21	1	1	1	experiment	2	getValueVector	2970		0		1	1	1	1	1	no erasure	no erasure		1		0	0	34	180	21121	5173		0			0	0	2		0			0				0.6999999999999999556				0		nan	0											17:01:26	17:01:29					0	wind	cloud	Planet1A.png	Ship1A.png	blank.png	blank.png		0
6.6.1	mac	0	2024-01-24	17:01:21	1	1	1	experiment	2	getValueVector	2970		0		1	1	1	1	1	no erasure	no erasure		1		0	0	35	182	21121	5173		0			0	0	2		0			0				0.6999999999999999556				0		nan	0											17:01:26	17:01:29					0	wind	cloud	Planet1A.png	Ship1A.png	blank.png	blank.png		0
6.6.1	mac	0	2024-01-24	17:01:21	1	1	1	experiment	2	getValueVector	2970		0		1	1	1	1	1	no erasure	no erasure		1		0	0	36	184	21121	5173		0			0	0	2		0			0				0.6999999999999999556				0		nan	0											17:01:26	17:01:29					0	wind	cloud	Planet1A.png	Ship1A.png	blank.png	blank.png		0
6.6.1	mac	0	2024-01-24	17:01:21	1	1	1	experiment	2	getValueVector	2970		0		1	1	1	1	1	no erasure	no erasure		1		0	0	37	186	21121	5173		0			0	0	2		0			0				0.6999999999999999556				0		nan	0											17:01:26	17:01:29					0	wind	cloud	Planet1A.png	Ship1A.png	blank.png	blank.png		0
6.6.1	mac	0	2024-01-24	17:01:21	1	1	1	experiment	2	getValueVector	2970		0		1	1	1	1	1	no erasure	no erasure		1		0	0	38	188	21121	5173		0			0	0	2		0			0				0.6999999999999999556				0		nan	0											17:01:26	17:01:29					0	wind	cloud	Planet1A.png	Ship1A.png	blank.png	blank.png		0
6.6.1	mac	0	2024-01-24	17:01:21	1	1	1	experiment	2	getValueVector	2970		0		1	1	1	1	1	no erasure	no erasure		1		0	0	39	190	21121	5173		0			0	0	2		0			0				0.6999999999999999556				0		nan	0											17:01:26	17:01:29					0	wind	cloud	Planet1A.png	Ship1A.png	blank.png	blank.png		0
6.6.1	mac	0	2024-01-24	17:01:21	1	1	1	experiment	2	getValueVector	2970		0		1	1	1	1	1	no erasure	no erasure		1		0	0	40	192	21121	5173		0			0	0	2		0			0				0.6999999999999999556				0		nan	0											17:01:26	17:01:29					0	wind	cloud	Planet1A.png	Ship1A.png	blank.png	blank.png		0
6.6.1	mac	0	2024-01-24	17:01:21	1	1	1	experiment	2	getValueVector	2970		0		1	1	1	1	1	no erasure	no erasure		1		0	0	41	193	21121	5173		0			0	0	2		0			0				0.6999999999999999556				0		nan	0											17:01:26	17:01:29					0	wind	cloud	Planet1A.png	Ship1A.png	blank.png	blank.png		0
6.6.1	mac	0	2024-01-24	17:01:21	1	1	1	experiment	2	getValueVector	2970		0		1	1	1	1	1	no erasure	no erasure		1		0	0	42	195	21121	5173		0			0	0	2		0			0				0.6999999999999999556				0		nan	0											17:01:26	17:01:29					0	wind	cloud	Planet1A.png	Ship1A.png	blank.png	blank.png		0
6.6.1	mac	0	2024-01-24	17:01:21	1	1	1	experiment	2	getValueVector	2970		0		1	1	1	1	1	no erasure	no erasure		1		0	0	43	196	21121	5173		0			0	0	2		0			0				0.6999999999999999556				0		nan	0											17:01:26	17:01:29					0	wind	cloud	Planet1A.png	Ship1A.png	blank.png	blank.png		0
6.6.1	mac	0	2024-01-24	17:01:21	1	1	1	experiment	2	getValueVector	2970		0		1	1	1	1	1	no erasure	no erasure		1		0	0	44	197	21121	5173		0			0	0	2		0			0				0.6999999999999999556				0		nan	0											17:01:26	17:01:29					0	wind	cloud	Planet1A.png	Ship1A.png	blank.png	blank.png		0
6.6.1	mac	0	2024-01-24	17:01:21	1	1	1	experiment	2	getValueVector	2970		0		1	1	1	1	1	no erasure	no erasure		1		0	0	45	198	21121	5173		0			0	0	2		0			0				0.6999999999999999556				0		nan	0											17:01:26	17:01:29					0	wind	cloud	Planet1A.png	Ship1A.png	blank.png	blank.png		0
6.6.1	mac	0	2024-01-24	17:01:21	1	1	1	experiment	2	getValueVector	2970		0		1	1	1	1	1	no erasure	no erasure		1		0	0	46	199	21121	5173		0			0	0	2		0			0				0.6999999999999999556				0		nan	0											17:01:26	17:01:29					0	wind	cloud	Planet1A.png	Ship1A.png	blank.png	blank.png		0
6.6.1	mac	0	2024-01-24	17:01:21	1	1	1	experiment	2	getValueVector	2970		0		1	1	1	1	1	no erasure	no erasure		1		0	0	47	200	21121	5173		0			0	0	2		0			0				0.6999999999999999556				0		nan	0											17:01:26	17:01:29					0	wind	cloud	Planet1A.png	Ship1A.png	blank.png	blank.png		0
6.6.1	mac	0	2024-01-24	17:01:21	1	1	1	experiment	2	getValueVector	2970		0		1	1	1	1	1	no erasure	no erasure		1		0	0	48	200	21121	5173		0			0	0	2		0			0				0.6999999999999999556				0		nan	0											17:01:26	17:01:29					0	wind	cloud	Planet1A.png	Ship1A.png	blank.png	blank.png		0
6.6.1	mac	0	2024-01-24	17:01:21	1	1	1	experiment	2	getValueVector	2970		0		1	1	1	1	1	no erasure	no erasure		1		0	0	49	201	21121	5173		0			0	0	2		0			0				0.6999999999999999556				0		nan	0											17:01:26	17:01:29					0	wind	cloud	Planet1A.png	Ship1A.png	blank.png	blank.png		0
6.6.1	mac	0	2024-01-24	17:01:21	1	1	1	experiment	2	getValueVector	2970		0		1	1	1	1	1	no erasure	no erasure		1		0	0	50	201	21121	5173		0			0	0	2		0			0				0.6999999999999999556				0		nan	0											17:01:26	17:01:29					0	wind	cloud	Planet1A.png	Ship1A.png	blank.png	blank.png		0
6.6.1	mac	0	2024-01-24	17:01:21	1	1	1	experiment	2	getValueVector	2970		0		1	1	1	1	1	no erasure	no erasure		1		0	0	51	201	21121	5173		0			0	0	2		0			0				0.6999999999999999556				0		nan	0											17:01:26	17:01:29					0	wind	cloud	Planet1A.png	Ship1A.png	blank.png	blank.png		0
6.6.1	mac	0	2024-01-24	17:01:21	1	1	1	experiment	2	getValueVector	2970		0		1	1	1	1	1	no erasure	no erasure		1		0	0	52	201	21121	5173		0			0	0	2		0			0				0.6999999999999999556				0		nan	0											17:01:26	17:01:29					0	wind	cloud	Planet1A.png	Ship1A.png	blank.png	blank.png		0
6.6.1	mac	0	2024-01-24	17:01:21	1	1	1	experiment	2	getValueVector	2970		0		1	1	1	1	1	no erasure	no erasure		1		0	0	53	201	21121	5173		0			0	0	2		0			0				0.6999999999999999556				0		nan	0											17:01:26	17:01:29					0	wind	cloud	Planet1A.png	Ship1A.png	blank.png	blank.png		0
6.6.1	mac	0	2024-01-24	17:01:21	1	1	1	experiment	2	getValueVector	2970		0		1	1	1	1	1	no erasure	no erasure		1		0	0	54	200	21121	5173		0			0	0	2		0			0				0.6999999999999999556				0		nan	0											17:01:26	17:01:29					0	wind	cloud	Planet1A.png	Ship1A.png	blank.png	blank.png		0
6.6.1	mac	0	2024-01-24	17:01:21	1	1	1	experiment	2	getValueVector	2970		0		1	1	1	1	1	no erasure	no erasure		1		0	0	55	200	21121	5173		0			0	0	2		0			0				0.6999999999999999556				0		nan	0											17:01:26	17:01:29					0	wind	cloud	Planet1A.png	Ship1A.png	blank.png	blank.png		0
6.6.1	mac	0	2024-01-24	17:01:21	1	1	1	experiment	2	getValueVector	2970		0		1	1	1	1	1	no erasure	no erasure		1		0	0	56	199	21121	5173		0			0	0	2		0			0				0.6999999999999999556				0		nan	0											17:01:26	17:01:29					0	wind	cloud	Planet1A.png	Ship1A.png	blank.png	blank.png		0
6.6.1	mac	0	2024-01-24	17:01:21	1	1	1	experiment	2	getValueVector	2970		0		1	1	1	1	1	no erasure	no erasure		1		0	0	57	198	21121	5173		0			0	0	2		0			0				0.6999999999999999556				0		nan	0											17:01:26	17:01:29					0	wind	cloud	Planet1A.png	Ship1A.png	blank.png	blank.png		0
6.6.1	mac	0	2024-01-24	17:01:21	1	1	1	experiment	2	getValueVector	2970		0		1	1	1	1	1	no erasure	no erasure		1		0	0	58	197	21121	5173		0			0	0	2		0			0				0.6999999999999999556				0		nan	0											17:01:26	17:01:29					0	wind	cloud	Planet1A.png	Ship1A.png	blank.png	blank.png		0
6.6.1	mac	0	2024-01-24	17:01:21	1	1	1	experiment	2	getValueVector	2970		0		1	1	1	1	1	no erasure	no erasure		1		0	0	59	196	21121	5173		0			0	0	2		0			0				0.6999999999999999556				0		nan	0											17:01:26	17:01:29					0	wind	cloud	Planet1A.png	Ship1A.png	blank.png	blank.png		0
6.6.1	mac	0	2024-01-24	17:01:21	1	1	1	experiment	2	getValueVector	2970		0		1	1	1	1	1	no erasure	no erasure		1		0	0	60	195	21121	5173		0			0	0	2		0			0				0.6999999999999999556				0		nan	0											17:01:26	17:01:29					0	wind	cloud	Planet1A.png	Ship1A.png	blank.png	blank.png		0
6.6.1	mac	0	2024-01-24	17:01:21	1	1	1	experiment	2	getValueVector	2970		0		1	1	1	1	1	no erasure	no erasure		1		0	0	61	193	21121	5173		0			0	0	2		0			0				0.6999999999999999556				0		nan	0											17:01:26	17:01:29					0	wind	cloud	Planet1A.png	Ship1A.png	blank.png	blank.png		0
6.6.1	mac	0	2024-01-24	17:01:21	1	1	1	experiment	2	getValueVector	2970		0		1	1	1	1	1	no erasure	no erasure		1		0	0	62	192	21121	5173		0			0	0	2		0			0				0.6999999999999999556				0		nan	0											17:01:26	17:01:29					0	wind	cloud	Planet1A.png	Ship1A.png	blank.png	blank.png		0
6.6.1	mac	0	2024-01-24	17:01:21	1	1	1	experiment	2	getValueVector	2970		0		1	1	1	1	1	no erasure	no erasure		1		0	0	63	190	21121	5173		0			0	0	2		0			0				0.6999999999999999556				0		nan	0											17:01:26	17:01:29					0	wind	cloud	Planet1A.png	Ship1A.png	blank.png	blank.png		0
6.6.1	mac	0	2024-01-24	17:01:21	1	1	1	experiment	2	getValueVector	2970		0		1	1	1	1	1	no erasure	no erasure		1		0	0	64	188	21121	5173		0			0	0	2		0			0				0.6999999999999999556				0		nan	0											17:01:26	17:01:29					0	wind	cloud	Planet1A.png	Ship1A.png	blank.png	blank.png		0
6.6.1	mac	0	2024-01-24	17:01:21	1	1	1	experiment	2	getValueVector	2970		0		1	1	1	1	1	no erasure	no erasure		1		0	0	65	186	21121	5173		0			0	0	2		0			0				0.6999999999999999556				0		nan	0											17:01:26	17:01:29					0	wind	cloud	Planet1A.png	Ship1A.png	blank.png	blank.png		0
6.6.1	mac	0	2024-01-24	17:01:21	1	1	1	experiment	2	getValueVector	2970		0		1	1	1	1	1	no erasure	no erasure		1		0	0	66	184	21121	5173		0			0	0	2		0			0				0.6999999999999999556				0		nan	0											17:01:26	17:01:29					0	wind	cloud	Planet1A.png	Ship1A.png	blank.png	blank.png		0
6.6.1	mac	0	2024-01-24	17:01:21	1	1	1	experiment	2	getValueVector	2970		0		1	1	1	1	1	no erasure	no erasure		1		0	0	67	182	21121	5173		0			0	0	2		0			0				0.6999999999999999556				0		nan	0											17:01:26	17:01:29					0	wind	cloud	Planet1A.png	Ship1A.png	blank.png	blank.png		0
6.6.1	mac	0	2024-01-24	17:01:21	1	1	1	experiment	2	getValueVector	2970		0		1	1	1	1	1	no erasure	no erasure		1		0	0	68	179	21121	5173		0			0	0	2		0			0				0.6999999999999999556				0		nan	0											17:01:26	17:01:29					0	wind	cloud	Planet1A.png	Ship1A.png	blank.png	blank.png		0
6.6.1	mac	0	2024-01-24	17:01:21	1	1	1	experiment	2	getValueVector	2970		0		1	1	1	1	1	no erasure	no erasure		1		0	0	69	177	21121	5173		0			0	0	2		0			0				0.6999999999999999556				0		nan	0											17:01:26	17:01:29					0	wind	cloud	Planet1A.png	Ship1A.png	blank.png	blank.png		0
6.6.1	mac	0	2024-01-24	17:01:21	1	1	1	experiment	2	getValueVector	2970		0		1	1	1	1	1	no erasure	no erasure		1		0	0	70	174	21121	5173		0			0	0	2		0			0				0.6999999999999999556				0		nan	0											17:01:26	17:01:29					0	wind	cloud	Planet1A.png	Ship1A.png	blank.png	blank.png		0
6.6.1	mac	0	2024-01-24	17:01:21	1	1	1	experiment	2	getValueVector	2970		0		1	1	1	1	1	no erasure	no erasure		1		0	0	71	172	21121	5173		0			0	0	2		0			0				0.6999999999999999556				0		nan	0											17:01:26	17:01:29					0	wind	cloud	Planet1A.png	Ship1A.png	blank.png	blank.png		0
6.6.1	mac	0	2024-01-24	17:01:21	1	1	1	experiment	2	getValueVector	2970		0		1	1	1	1	1	no erasure	no erasure		1		0	0	72	169	21121	5173		0			0	0	2		0			0				0.6999999999999999556				0		nan	0											17:01:26	17:01:29					0	wind	cloud	Planet1A.png	Ship1A.png	blank.png	blank.png		0
6.6.1	mac	0	2024-01-24	17:01:21	1	1	1	experiment	2	getValueVector	2970		0		1	1	1	1	1	no erasure	no erasure		1		0	0	73	166	21121	5173		0			0	0	2		0			0				0.6999999999999999556				0		nan	0											17:01:26	17:01:29					0	wind	cloud	Planet1A.png	Ship1A.png	blank.png	blank.png		0
6.6.1	mac	0	2024-01-24	17:01:21	1	1	1	experiment	2	getValueVector	2970		0		1	1	1	1	1	no erasure	no erasure		1		0	0	74	163	21121	5173		0			0	0	2		0			0				0.6999999999999999556				0		nan	0											17:01:26	17:01:29					0	wind	cloud	Planet1A.png	Ship1A.png	blank.png	blank.png		0
6.6.1	mac	0	2024-01-24	17:01:21	1	1	1	experiment	2	getValueVector	2970		0		1	1	1	1	1	no erasure	no erasure		1		0	0	75	160	21121	5173		0			0	0	2		0			0				0.6999999999999999556				0		nan	0											17:01:26	17:01:29					0	wind	cloud	Planet1A.png	Ship1A.png	blank.png	blank.png		0
6.6.1	mac	0	2024-01-24	17:01:21	1	1	1	experiment	2	getValueVector	2970		0		1	1	1	1	1	no erasure	no erasure		1		0	0	76	157	21121	5173		0			0	0	2		0			0				0.6999999999999999556				0		nan	0											17:01:26	17:01:29					0	wind	cloud	Planet1A.png	Ship1A.png	blank.png	blank.png		0
6.6.1	mac	0	2024-01-24	17:01:21	1	1	1	experiment	2	getValueVector	2970		0		1	1	1	1	1	no erasure	no erasure		1		0	0	77	154	21121	5173		0			0	0	2		0			0				0.6999999999999999556				0		nan	0											17:01:26	17:01:29					0	wind	cloud	Planet1A.png	Ship1A.png	blank.png	blank.png		0
6.6.1	mac	0	2024-01-24	17:01:21	1	1	1	experiment	2	getValueVector	2970		0		1	1	1	1	1	no erasure	no erasure		1		0	0	78	150	21121	5173		0			0	0	2		0			0				0.6999999999999999556				0		nan	0											17:01:26	17:01:29					0	wind	cloud	Planet1A.png	Ship1A.png	blank.png	blank.png		0
6.6.1	mac	0	2024-01-24	17:01:21	1	1	1	experiment	2	getValueVector	2970		0		1	1	1	1	1	no erasure	no erasure		1		0	0	79	147	21121	5173		0			0	0	2		0			0				0.6999999999999999556				0		nan	0											17:01:26	17:01:29					0	wind	cloud	Planet1A.png	Ship1A.png	blank.png	blank.png		0
6.6.1	mac	0	2024-01-24	17:01:21	1	1	1	experiment	2	getValueVector	2970		0		1	1	1	1	1	no erasure	no erasure		1		0	0	80	144	21121	5173		0			0	0	2		0			0				0.6999999999999999556				0		nan	0											17:01:26	17:01:29					0	wind	cloud	Planet1A.png	Ship1A.png	blank.png	blank.png		0
6.6.1	mac	0	2024-01-24	17:01:21	1	1	1	experiment	2	getValueVector	2970		0		1	1	1	1	1	no erasure	no erasure		1		0	0	81	140	21121	5173		0			0	0	2		0			0				0.6999999999999999556				0		nan	0											17:01:26	17:01:29					0	wind	cloud	Planet1A.png	Ship1A.png	blank.png	blank.png		0
6.6.1	mac	0	2024-01-24	17:01:21	1	1	1	experiment	2	getValueVector	2970		0		1	1	1	1	1	no erasure	no erasure		1		0	0	82	137	21121	5173		0			0	0	2		0			0				0.6999999999999999556				0		nan	0											17:01:26	17:01:29					0	wind	cloud	Planet1A.png	Ship1A.png	blank.png	blank.png		0
6.6.1	mac	0	2024-01-24	17:01:21	1	1	1	experiment	2	getValueVector	2970		0		1	1	1	1	1	no erasure	no erasure		1		0	0	83	134	21121	5173		0			0	0	2		0			0				0.6999999999999999556				0		nan	0											17:01:26	17:01:29					0	wind	cloud	Planet1A.png	Ship1A.png	blank.png	blank.png		0
6.6.1	mac	0	2024-01-24	17:01:21	1	1	1	experiment	2	getValueVector	2970		0		1	1	1	1	1	no erasure	no erasure		1		0	0	84	130	21121	5173		0			0	0	2		0			0				0.6999999999999999556				0		nan	0											17:01:26	17:01:29					0	wind	cloud	Planet1A.png	Ship1A.png	blank.png	blank.png		0
6.6.1	mac	0	2024-01-24	17:01:21	1	1	1	experiment	2	getValueVector	2970		0		1	1	1	1	1	no erasure	no erasure		1		0	0	85	127	21121	5173		0			0	0	2		0			0				0.6999999999999999556				0		nan	0											17:01:26	17:01:29					0	wind	cloud	Planet1A.png	Ship1A.png	blank.png	blank.png		0
6.6.1	mac	0	2024-01-24	17:01:21	1	1	1	experiment	2	getValueVector	2970		0		1	1	1	1	1	no erasure	no erasure		1		0	0	86	123	21121	5173		0			0	0	2		0			0				0.6999999999999999556				0		nan	0											17:01:26	17:01:29					0	wind	cloud	Planet1A.png	Ship1A.png	blank.png	blank.png		0
6.6.1	mac	0	2024-01-24	17:01:21	1	1	1	experiment	2	getValueVector	2970		0		1	1	1	1	1	no erasure	no erasure		1		0	0	87	120	21121	5173		0			0	0	2		0			0				0.6999999999999999556				0		nan	0											17:01:26	17:01:29					0	wind	cloud	Planet1A.png	Ship1A.png	blank.png	blank.png		0
6.6.1	mac	0	2024-01-24	17:01:21	1	1	1	experiment	2	getValueVector	2970		0		1	1	1	1	1	no erasure	no erasure		1		0	0	88	116	21121	5173		0			0	0	2		0			0				0.6999999999999999556				0		nan	0											17:01:26	17:01:29					0	wind	cloud	Planet1A.png	Ship1A.png	blank.png	blank.png		0
6.6.1	mac	0	2024-01-24	17:01:21	1	1	1	experiment	2	getValueVector	2970		0		1	1	1	1	1	no erasure	no erasure		1		0	0	89	113	21121	5173		0			0	0	2		0			0				0.6999999999999999556				0		nan	0											17:01:26	17:01:29					0	wind	cloud	Planet1A.png	Ship1A.png	blank.png	blank.png		0
6.6.1	mac	0	2024-01-24	17:01:21	1	1	1	experiment	2	getValueVector	2970		0		1	1	1	1	1	no erasure	no erasure		1		0	0	90	109	21121	5173		0			0	0	2		0			0				0.6999999999999999556				0		nan	0											17:01:26	17:01:29					0	wind	cloud	Planet1A.png	Ship1A.png	blank.png	blank.png		0
6.6.1	mac	0	2024-01-24	17:01:21	1	1	1	experiment	2	getValueVector	2970		0		1	1	1	1	1	no erasure	no erasure		1		0	0	91	106	21121	5173		0			0	0	2		0			0				0.6999999999999999556				0		nan	0											17:01:26	17:01:29					0	wind	cloud	Planet1A.png	Ship1A.png	blank.png	blank.png		0
6.6.1	mac	0	2024-01-24	17:01:21	1	1	1	experiment	2	getValueVector	2970		0		1	1	1	1	1	no erasure	no erasure		1		0	0	92	102	21121	5173		0			0	0	2		0			0				0.6999999999999999556				0		nan	0											17:01:26	17:01:29					0	wind	cloud	Planet1A.png	Ship1A.png	blank.png	blank.png		0
6.6.1	mac	0	2024-01-24	17:01:21	1	1	1	experiment	2	getValueVector	2970		0		1	1	1	1	1	no erasure	no erasure		1		0	0	93	99	21121	5173		0			0	0	2		0			0				0.6999999999999999556				0		nan	0											17:01:26	17:01:29					0	wind	cloud	Planet1A.png	Ship1A.png	blank.png	blank.png		0
6.6.1	mac	0	2024-01-24	17:01:21	1	1	1	experiment	2	getValueVector	2970		0		1	1	1	1	1	no erasure	no erasure		1		0	0	94	96	21121	5173		0			0	0	2		0			0				0.6999999999999999556				0		nan	0											17:01:26	17:01:29					0	wind	cloud	Planet1A.png	Ship1A.png	blank.png	blank.png		0
6.6.1	mac	0	2024-01-24	17:01:21	1	1	1	experiment	2	getValueVector	2970		0		1	1	1	1	1	no erasure	no erasure		1		0	0	95	92	21121	5173		0			0	0	2		0			0				0.6999999999999999556				0		nan	0											17:01:26	17:01:29					0	wind	cloud	Planet1A.png	Ship1A.png	blank.png	blank.png		0
6.6.1	mac	0	2024-01-24	17:01:21	1	1	1	experiment	2	getValueVector	2970		0		1	1	1	1	1	no erasure	no erasure		1		0	0	96	89	21121	5173		0			0	0	2		0			0				0.6999999999999999556				0		nan	0											17:01:26	17:01:29					0	wind	cloud	Planet1A.png	Ship1A.png	blank.png	blank.png		0
6.6.1	mac	0	2024-01-24	17:01:21	1	1	1	experiment	2	getValueVector	2970		0		1	1	1	1	1	no erasure	no erasure		1		0	0	97	86	21121	5173		0			0	0	2		0			0				0.6999999999999999556				0		nan	0											17:01:26	17:01:29					0	wind	cloud	Planet1A.png	Ship1A.png	blank.png	blank.png		0
6.6.1	mac	0	2024-01-24	17:01:21	1	1	1	experiment	2	getValueVector	2970		0		1	1	1	1	1	no erasure	no erasure		1		0	0	98	83	21121	5173		0			0	0	2		0			0				0.6999999999999999556				0		nan	0											17:01:26	17:01:29					0	wind	cloud	Planet1A.png	Ship1A.png	blank.png	blank.png		0
6.6.1	mac	0	2024-01-24	17:01:21	1	1	1	experiment	2	getValueVector	2970		0		1	1	1	1	1	no erasure	no erasure		1		0	0	99	79	21121	5173		0			0	0	2		0			0				0.6999999999999999556				0		nan	0											17:01:26	17:01:29					0	wind	cloud	Planet1A.png	Ship1A.png	blank.png	blank.png		0
6.6.1	mac	0	2024-01-24	17:01:21	1	1	1	experiment	2	getValueVector	2970		0		1	1	1	1	1	no erasure	no erasure		1		0	0	100	76	21121	5173		0			0	0	2		0			0				0.6999999999999999556				0		nan	0											17:01:26	17:01:29					0	wind	cloud	Planet1A.png	Ship1A.png	blank.png	blank.png		0
6.6.1	mac	0	2024-01-24	17:01:21	1	1	1	experiment	2	getValueVector	2970		0		1	1	1	1	1	no erasure	no erasure		1		0	0	101	73	21121	5173		0			0	0	2		0			0				0.6999999999999999556				0		nan	0											17:01:26	17:01:29					0	wind	cloud	Planet1A.png	Ship1A.png	blank.png	blank.png		0
6.6.1	mac	0	2024-01-24	17:01:21	1	1	1	experiment	2	getValueVector	2970		0		1	1	1	1	1	no erasure	no erasure		1		0	0	102	70	21121	5173		0			0	0	2		0			0				0.6999999999999999556				0		nan	0											17:01:26	17:01:29					0	wind	cloud	Planet1A.png	Ship1A.png	blank.png	blank.png		0
6.6.1	mac	0	2024-01-24	17:01:21	1	1	1	experiment	2	getValueVector	2970		0		1	1	1	1	1	no erasure	no erasure		1		0	0	103	67	21121	5173		0			0	0	2		0			0				0.6999999999999999556				0		nan	0											17:01:26	17:01:29					0	wind	cloud	Planet1A.png	Ship1A.png	blank.png	blank.png		0
6.6.1	mac	0	2024-01-24	17:01:21	1	1	1	experiment	2	getValueVector	2970		0		1	1	1	1	1	no erasure	no erasure		1		0	0	104	64	21121	5173		0			0	0	2		0			0				0.6999999999999999556				0		nan	0											17:01:26	17:01:29					0	wind	cloud	Planet1A.png	Ship1A.png	blank.png	blank.png		0
6.6.1	mac	0	2024-01-24	17:01:21	1	1	1	experiment	2	getValueVector	2970		0		1	1	1	1	1	no erasure	no erasure		1		0	0	105	62	21121	5173		0			0	0	2		0			0				0.6999999999999999556				0		nan	0											17:01:26	17:01:29					0	wind	cloud	Planet1A.png	Ship1A.png	blank.png	blank.png		0
6.6.1	mac	0	2024-01-24	17:01:21	1	1	1	experiment	2	getValueVector	2970		0		1	1	1	1	1	no erasure	no erasure		1		0	0	106	59	21121	5173		0			0	0	2		0			0				0.6999999999999999556				0		nan	0											17:01:26	17:01:29					0	wind	cloud	Planet1A.png	Ship1A.png	blank.png	blank.png		0
6.6.1	mac	0	2024-01-24	17:01:21	1	1	1	experiment	2	getValueVector	2970		0		1	1	1	1	1	no erasure	no erasure		1		0	0	107	56	21121	5173		0			0	0	2		0			0				0.6999999999999999556				0		nan	0											17:01:26	17:01:29					0	wind	cloud	Planet1A.png	Ship1A.png	blank.png	blank.png		0
6.6.1	mac	0	2024-01-24	17:01:21	1	1	1	experiment	2	getValueVector	2970		0		1	1	1	1	1	no erasure	no erasure		1		0	0	108	54	21121	5173		0			0	0	2		0			0				0.6999999999999999556				0		nan	0											17:01:26	17:01:29					0	wind	cloud	Planet1A.png	Ship1A.png	blank.png	blank.png		0
6.6.1	mac	0	2024-01-24	17:01:21	1	1	1	experiment	2	getValueVector	2970		0		1	1	1	1	1	no erasure	no erasure		1		0	0	109	51	21121	5173		0			0	0	2		0			0				0.6999999999999999556				0		nan	0											17:01:26	17:01:29					0	wind	cloud	Planet1A.png	Ship1A.png	blank.png	blank.png		0
6.6.1	mac	0	2024-01-24	17:01:21	1	1	1	experiment	2	getValueVector	2970		0		1	1	1	1	1	no erasure	no erasure		1		0	0	110	49	21121	5173		0			0	0	2		0			0				0.6999999999999999556				0		nan	0											17:01:26	17:01:29					0	wind	cloud	Planet1A.png	Ship1A.png	blank.png	blank.png		0
6.6.1	mac	0	2024-01-24	17:01:21	1	1	1	experiment	2	getValueVector	2970		0		1	1	1	1	1	no erasure	no erasure		1		0	0	111	46	21121	5173		0			0	0	2		0			0				0.6999999999999999556				0		nan	0											17:01:26	17:01:29					0	wind	cloud	Planet1A.png	Ship1A.png	blank.png	blank.png		0
6.6.1	mac	0	2024-01-24	17:01:21	1	1	1	experiment	2	getValueVector	2970		0		1	1	1	1	1	no erasure	no erasure		1		0	0	112	44	21121	5173		0			0	0	2		0			0				0.6999999999999999556				0		nan	0											17:01:26	17:01:29					0	wind	cloud	Planet1A.png	Ship1A.png	blank.png	blank.png		0
6.6.1	mac	0	2024-01-24	17:01:21	1	1	1	experiment	2	getValueVector	2970		0		1	1	1	1	1	no erasure	no erasure		1		0	0	113	41	21121	5173		0			0	0	2		0			0				0.6999999999999999556				0		nan	0											17:01:26	17:01:29					0	wind	cloud	Planet1A.png	Ship1A.png	blank.png	blank.png		0
6.6.1	mac	0	2024-01-24	17:01:21	1	1	1	experiment	2	getValueVector	2970		0		1	1	1	1	1	no erasure	no erasure		1		0	0	114	39	21121	5173		0			0	0	2		0			0				0.6999999999999999556				0		nan	0											17:01:26	17:01:29					0	wind	cloud	Planet1A.png	Ship1A.png	blank.png	blank.png		0
6.6.1	mac	0	2024-01-24	17:01:21	1	1	1	experiment	2	getValueVector	2970		0		1	1	1	1	1	no erasure	no erasure		1		0	0	115	37	21121	5173		0			0	0	2		0			0				0.6999999999999999556				0		nan	0											17:01:26	17:01:29					0	wind	cloud	Planet1A.png	Ship1A.png	blank.png	blank.png		0
6.6.1	mac	0	2024-01-24	17:01:21	1	1	1	experiment	2	getValueVector	2970		0		1	1	1	1	1	no erasure	no erasure		1		0	0	116	35	21121	5173		0			0	0	2		0			0				0.6999999999999999556				0		nan	0											17:01:26	17:01:29					0	wind	cloud	Planet1A.png	Ship1A.png	blank.png	blank.png		0
6.6.1	mac	0	2024-01-24	17:01:21	1	1	1	experiment	2	getValueVector	2970		0		1	1	1	1	1	no erasure	no erasure		1		0	0	117	33	21121	5173		0			0	0	2		0			0				0.6999999999999999556				0		nan	0											17:01:26	17:01:29					0	wind	cloud	Planet1A.png	Ship1A.png	blank.png	blank.png		0
6.6.1	mac	0	2024-01-24	17:01:21	1	1	1	experiment	2	getValueVector	2970		0		1	1	1	1	1	no erasure	no erasure		1		0	0	118	31	21121	5173		0			0	0	2		0			0				0.6999999999999999556				0		nan	0											17:01:26	17:01:29					0	wind	cloud	Planet1A.png	Ship1A.png	blank.png	blank.png		0
6.6.1	mac	0	2024-01-24	17:01:21	1	1	1	experiment	2	getValueVector	2970		0		1	1	1	1	1	no erasure	no erasure		1		0	0	119	29	21121	5173		0			0	0	2		0			0				0.6999999999999999556				0		nan	0											17:01:26	17:01:29					0	wind	cloud	Planet1A.png	Ship1A.png	blank.png	blank.png		0
6.6.1	mac	0	2024-01-24	17:01:21	1	1	1	experiment	2	getValueVector	2970		0		1	1	1	1	1	no erasure	no erasure		1		0	0	120	27	21121	5173		0			0	0	2		0			0				0.6999999999999999556				0		nan	0											17:01:26	17:01:29					0	wind	cloud	Planet1A.png	Ship1A.png	blank.png	blank.png		0
6.6.1	mac	0	2024-01-24	17:01:21	1	1	1	experiment	2	getValueVector	2970		0		1	1	1	1	1	no erasure	no erasure		1		0	0	121	26	21121	5173		0			0	0	2		0			0				0.6999999999999999556				0		nan	0											17:01:26	17:01:29					0	wind	cloud	Planet1A.png	Ship1A.png	blank.png	blank.png		0
6.6.1	mac	0	2024-01-24	17:01:21	1	1	1	experiment	2	getValueVector	2970		0		1	1	1	1	1	no erasure	no erasure		1		0	0	122	24	21121	5173		0			0	0	2		0			0				0.6999999999999999556				0		nan	0											17:01:26	17:01:29					0	wind	cloud	Planet1A.png	Ship1A.png	blank.png	blank.png		0
6.6.1	mac	0	2024-01-24	17:01:21	1	1	1	experiment	2	getValueVector	2970		0		1	1	1	1	1	no erasure	no erasure		1		0	0	123	22	21121	5173		0			0	0	2		0			0				0.6999999999999999556				0		nan	0											17:01:26	17:01:29					0	wind	cloud	Planet1A.png	Ship1A.png	blank.png	blank.png		0
6.6.1	mac	0	2024-01-24	17:01:21	1	1	1	experiment	2	getValueVector	2970		0		1	1	1	1	1	no erasure	no erasure		1		0	0	124	21	21121	5173		0			0	0	2		0			0				0.6999999999999999556				0		nan	0											17:01:26	17:01:29					0	wind	cloud	Planet1A.png	Ship1A.png	blank.png	blank.png		0
6.6.1	mac	0	2024-01-24	17:01:21	1	1	1	experiment	2	getValueVector	2970		0		1	1	1	1	1	no erasure	no erasure		1		0	0	125	19	21121	5173		0			0	0	2		0			0				0.6999999999999999556				0		nan	0											17:01:26	17:01:29					0	wind	cloud	Planet1A.png	Ship1A.png	blank.png	blank.png		0
6.6.1	mac	0	2024-01-24	17:01:21	1	1	1	experiment	2	getValueVector	2970		0		1	1	1	1	1	no erasure	no erasure		1		0	0	126	18	21121	5173		0			0	0	2		0			0				0.6999999999999999556				0		nan	0											17:01:26	17:01:29					0	wind	cloud	Planet1A.png	Ship1A.png	blank.png	blank.png		0
6.6.1	mac	0	2024-01-24	17:01:21	1	1	1	experiment	2	getValueVector	2970		0		1	1	1	1	1	no erasure	no erasure		1		0	0	127	17	21121	5173		0			0	0	2		0			0				0.6999999999999999556				0		nan	0											17:01:26	17:01:29					0	wind	cloud	Planet1A.png	Ship1A.png	blank.png	blank.png		0
6.6.1	mac	0	2024-01-24	17:01:21	1	1	1	experiment	2	getValueVector	2970		0		1	1	1	1	1	no erasure	no erasure		1		0	0	128	15	21121	5173		0			0	0	2		0			0				0.6999999999999999556				0		nan	0											17:01:26	17:01:29					0	wind	cloud	Planet1A.png	Ship1A.png	blank.png	blank.png		0
6.6.1	mac	0	2024-01-24	17:01:21	1	1	1	experiment	2	getValueVector	2970		0		1	1	1	1	1	no erasure	no erasure		1		0	0	129	14	21121	5173		0			0	0	2		0			0				0.6999999999999999556				0		nan	0											17:01:26	17:01:29					0	wind	cloud	Planet1A.png	Ship1A.png	blank.png	blank.png		0
6.6.1	mac	0	2024-01-24	17:01:21	1	1	1	experiment	2	getValueVector	2970		0		1	1	1	1	1	no erasure	no erasure		1		0	0	130	13	21121	5173		0			0	0	2		0			0				0.6999999999999999556				0		nan	0											17:01:26	17:01:29					0	wind	cloud	Planet1A.png	Ship1A.png	blank.png	blank.png		0
6.6.1	mac	0	2024-01-24	17:01:21	1	1	1	experiment	2	getValueVector	2970		0		1	1	1	1	1	no erasure	no erasure		1		0	0	131	12	21121	5173		0			0	0	2		0			0				0.6999999999999999556				0		nan	0											17:01:26	17:01:29					0	wind	cloud	Planet1A.png	Ship1A.png	blank.png	blank.png		0
6.6.1	mac	0	2024-01-24	17:01:21	1	1	1	experiment	2	getValueVector	2970		0		1	1	1	1	1	no erasure	no erasure		1		0	0	132	11	21121	5173		0			0	0	2		0			0				0.6999999999999999556				0		nan	0											17:01:26	17:01:29					0	wind	cloud	Planet1A.png	Ship1A.png	blank.png	blank.png		0
6.6.1	mac	0	2024-01-24	17:01:21	1	1	1	experiment	2	getValueVector	2970		0		1	1	1	1	1	no erasure	no erasure		1		0	0	133	10	21121	5173		0			0	0	2		0			0				0.6999999999999999556				0		nan	0											17:01:26	17:01:29					0	wind	cloud	Planet1A.png	Ship1A.png	blank.png	blank.png		0
6.6.1	mac	0	2024-01-24	17:01:21	1	1	1	experiment	2	getValueVector	2970		0		1	1	1	1	1	no erasure	no erasure		1		0	0	134	9	21121	5173		0			0	0	2		0			0				0.6999999999999999556				0		nan	0											17:01:26	17:01:29					0	wind	cloud	Planet1A.png	Ship1A.png	blank.png	blank.png		0
6.6.1	mac	0	2024-01-24	17:01:21	1	1	1	experiment	2	getValueVector	2970		0		1	1	1	1	1	no erasure	no erasure		1		0	0	135	8	21121	5173		0			0	0	2		0			0				0.6999999999999999556				0		nan	0											17:01:26	17:01:29					0	wind	cloud	Planet1A.png	Ship1A.png	blank.png	blank.png		0
6.6.1	mac	0	2024-01-24	17:01:21	1	1	1	experiment	2	getValueVector	2970		0		1	1	1	1	1	no erasure	no erasure		1		0	0	136	7	21121	5173		0			0	0	2		0			0				0.6999999999999999556				0		nan	0											17:01:26	17:01:29					0	wind	cloud	Planet1A.png	Ship1A.png	blank.png	blank.png		0
6.6.1	mac	0	2024-01-24	17:01:21	1	1	1	experiment	2	getValueVector	2970		0		1	1	1	1	1	no erasure	no erasure		1		0	0	137	7	21121	5173		0			0	0	2		0			0				0.6999999999999999556				0		nan	0											17:01:26	17:01:29					0	wind	cloud	Planet1A.png	Ship1A.png	blank.png	blank.png		0
6.6.1	mac	0	2024-01-24	17:01:21	1	1	1	experiment	2	getValueVector	2970		0		1	1	1	1	1	no erasure	no erasure		1		0	0	138	6	21121	5173		0			0	0	2		0			0				0.6999999999999999556				0		nan	0											17:01:26	17:01:29					0	wind	cloud	Planet1A.png	Ship1A.png	blank.png	blank.png		0
6.6.1	mac	0	2024-01-24	17:01:21	1	1	1	experiment	2	getValueVector	2970		0		1	1	1	1	1	no erasure	no erasure		1		0	0	139	5	21121	5173		0			0	0	2		0			0				0.6999999999999999556				0		nan	0											17:01:26	17:01:29					0	wind	cloud	Planet1A.png	Ship1A.png	blank.png	blank.png		0
6.6.1	mac	0	2024-01-24	17:01:21	1	1	1	experiment	2	getValueVector	2970		0		1	1	1	1	1	no erasure	no erasure		1		0	0	140	5	21121	5173		0			0	0	2		0			0				0.6999999999999999556				0		nan	0											17:01:26	17:01:29					0	wind	cloud	Planet1A.png	Ship1A.png	blank.png	blank.png		0
6.6.1	mac	0	2024-01-24	17:01:21	1	1	1	experiment	2	getValueVector	2970		0		1	1	1	1	1	no erasure	no erasure		1		0	0	141	4	21121	5173		0			0	0	2		0			0				0.6999999999999999556				0		nan	0											17:01:26	17:01:29					0	wind	cloud	Planet1A.png	Ship1A.png	blank.png	blank.png		0
6.6.1	mac	0	2024-01-24	17:01:21	1	1	1	experiment	2	getValueVector	2970		0		1	1	1	1	1	no erasure	no erasure		1		0	0	142	4	21121	5173		0			0	0	2		0			0				0.6999999999999999556				0		nan	0											17:01:26	17:01:29					0	wind	cloud	Planet1A.png	Ship1A.png	blank.png	blank.png		0
6.6.1	mac	0	2024-01-24	17:01:21	1	1	1	experiment	2	getValueVector	2970		0		1	1	1	1	1	no erasure	no erasure		1		0	0	143	3	21121	5173		0			0	0	2		0			0				0.6999999999999999556				0		nan	0											17:01:26	17:01:29					0	wind	cloud	Planet1A.png	Ship1A.png	blank.png	blank.png		0
6.6.1	mac	0	2024-01-24	17:01:21	1	1	1	experiment	2	getValueVector	2970		0		1	1	1	1	1	no erasure	no erasure		1		0	0	144	3	21121	5173		0			0	0	2		0			0				0.6999999999999999556				0		nan	0											17:01:26	17:01:29					0	wind	cloud	Planet1A.png	Ship1A.png	blank.png	blank.png		0
6.6.1	mac	0	2024-01-24	17:01:21	1	1	1	experiment	2	getValueVector	2970		0		1	1	1	1	1	no erasure	no erasure		1		0	0	145	2	21121	5173		0			0	0	2		0			0				0.6999999999999999556				0		nan	0											17:01:26	17:01:29					0	wind	cloud	Planet1A.png	Ship1A.png	blank.png	blank.png		0
6.6.1	mac	0	2024-01-24	17:01:21	1	1	1	experiment	2	getValueVector	2970		0		1	1	1	1	1	no erasure	no erasure		1		0	0	146	2	21121	5173		0			0	0	2		0			0				0.6999999999999999556				0		nan	0											17:01:26	17:01:29					0	wind	cloud	Planet1A.png	Ship1A.png	blank.png	blank.png		0
6.6.1	mac	0	2024-01-24	17:01:21	1	1	1	experiment	2	getValueVector	2970		0		1	1	1	1	1	no erasure	no erasure		1		0	0	147	2	21121	5173		0			0	0	2		0			0				0.6999999999999999556				0		nan	0											17:01:26	17:01:29					0	wind	cloud	Planet1A.png	Ship1A.png	blank.png	blank.png		0
6.6.1	mac	0	2024-01-24	17:01:21	1	1	1	experiment	2	getValueVector	2970		0		1	1	1	1	1	no erasure	no erasure		1		0	0	148	2	21121	5173		0			0	0	2		0			0				0.6999999999999999556				0		nan	0											17:01:26	17:01:29					0	wind	cloud	Planet1A.png	Ship1A.png	blank.png	blank.png		0
6.6.1	mac	0	2024-01-24	17:01:21	1	1	1	experiment	2	getValueVector	2970		0		1	1	1	1	1	no erasure	no erasure		1		0	0	149	1	21121	5173		0			0	0	2		0			0				0.6999999999999999556				0		nan	0											17:01:26	17:01:29					0	wind	cloud	Planet1A.png	Ship1A.png	blank.png	blank.png		0
6.6.1	mac	0	2024-01-24	17:01:21	1	1	1	experiment	2	getValueVector	2970		0		1	1	1	1	1	no erasure	no erasure		1		0	0	150	1	21121	5173		0			0	0	2		0			0				0.6999999999999999556				0		nan	0											17:01:26	17:01:29					0	wind	cloud	Planet1A.png	Ship1A.png	blank.png	blank.png		0
6.6.1	mac	0	2024-01-24	17:01:21	1	1	1	experiment	2	getValueVector	2970		0		1	1	1	1	1	no erasure	no erasure		1		0	0	151	1	21121	5173		0			0	0	2		0			0				0.6999999999999999556				0		nan	0											17:01:26	17:01:29					0	wind	cloud	Planet1A.png	Ship1A.png	blank.png	blank.png		0
6.6.1	mac	0	2024-01-24	17:01:21	1	1	1	experiment	2	getValueVector	2970		0		1	1	1	1	1	no erasure	no erasure		1		0	0	152	1	21121	5173		0			0	0	2		0			0				0.6999999999999999556				0		nan	0											17:01:26	17:01:29					0	wind	cloud	Planet1A.png	Ship1A.png	blank.png	blank.png		0
6.6.1	mac	0	2024-01-24	17:01:21	1	1	1	experiment	2	getValueVector	2970		0		1	1	1	1	1	no erasure	no erasure		1		0	0	153	1	21121	5173		0			0	0	2		0			0				0.6999999999999999556				0		nan	0											17:01:26	17:01:29					0	wind	cloud	Planet1A.png	Ship1A.png	blank.png	blank.png		0
6.6.1	mac	0	2024-01-24	17:01:21	1	1	1	experiment	2	getValueVector	2970		0		1	1	1	1	1	no erasure	no erasure		1		0	0	154	1	21121	5173		0			0	0	2		0			0				0.6999999999999999556				0		nan	0											17:01:26	17:01:29					0	wind	cloud	Planet1A.png	Ship1A.png	blank.png	blank.png		0
6.6.1	mac	0	2024-01-24	17:01:21	1	1	1	experiment	2	getValueVector	2970		0		1	1	1	1	1	no erasure	no erasure		1		0	0	155	1	21121	5173		0			0	0	2		0			0				0.6999999999999999556				0		nan	0											17:01:26	17:01:29					0	wind	cloud	Planet1A.png	Ship1A.png	blank.png	blank.png		0
6.6.1	mac	0	2024-01-24	17:01:21	1	1	1	experiment	2	getValueVector	2970		0		1	1	1	1	1	no erasure	no erasure		1		0	0	156	1	21121	5173		0			0	0	2		0			0				0.6999999999999999556				0		nan	0											17:01:26	17:01:29					0	wind	cloud	Planet1A.png	Ship1A.png	blank.png	blank.png		0
6.6.1	mac	0	2024-01-24	17:01:21	1	1	1	experiment	2	getValueVector	2970		0		1	1	1	1	1	no erasure	no erasure		1		0	0	157	1	21121	5173		0			0	0	2		0			0				0.6999999999999999556				0		nan	0											17:01:26	17:01:29					0	wind	cloud	Planet1A.png	Ship1A.png	blank.png	blank.png		0
6.6.1	mac	0	2024-01-24	17:01:21	1	1	1	experiment	2	getValueVector	2970		0		1	1	1	1	1	no erasure	no erasure		1		0	0	158	1	21121	5173		0			0	0	2		0			0				0.6999999999999999556				0		nan	0											17:01:26	17:01:29					0	wind	cloud	Planet1A.png	Ship1A.png	blank.png	blank.png		0
6.6.1	mac	0	2024-01-24	17:01:21	1	1	1	experiment	2	getValueVector	2970		0		1	1	1	1	1	no erasure	no erasure		1		0	0	159	1	21121	5173		0			0	0	2		0			0				0.6999999999999999556				0		nan	0											17:01:26	17:01:29					0	wind	cloud	Planet1A.png	Ship1A.png	blank.png	blank.png		0
6.6.1	mac	0	2024-01-24	17:01:21	1	1	1	experiment	2	getValueVector	2970		0		1	1	1	1	1	no erasure	no erasure		1		0	0	160	2	21121	5173		0			0	0	2		0			0				0.6999999999999999556				0		nan	0											17:01:26	17:01:29					0	wind	cloud	Planet1A.png	Ship1A.png	blank.png	blank.png		0
6.6.1	mac	0	2024-01-24	17:01:21	1	1	1	experiment	2	getValueVector	2970		0		1	1	1	1	1	no erasure	no erasure		1		0	0	161	2	21121	5173		0			0	0	2		0			0				0.6999999999999999556				0		nan	0											17:01:26	17:01:29					0	wind	cloud	Planet1A.png	Ship1A.png	blank.png	blank.png		0
6.6.1	mac	0	2024-01-24	17:01:21	1	1	1	experiment	2	getValueVector	2970		0		1	1	1	1	1	no erasure	no erasure		1		0	0	162	2	21121	5173		0			0	0	2		0			0				0.6999999999999999556				0		nan	0											17:01:26	17:01:29					0	wind	cloud	Planet1A.png	Ship1A.png	blank.png	blank.png		0
6.6.1	mac	0	2024-01-24	17:01:21	1	1	1	experiment	2	getValueVector	2970		0		1	1	1	1	1	no erasure	no erasure		1		0	0	163	2	21121	5173		0			0	0	2		0			0				0.6999999999999999556				0		nan	0											17:01:26	17:01:29					0	wind	cloud	Planet1A.png	Ship1A.png	blank.png	blank.png		0
6.6.1	mac	0	2024-01-24	17:01:21	1	1	1	experiment	2	getValueVector	2970		0		1	1	1	1	1	no erasure	no erasure		1		0	0	164	2	21121	5173		0			0	0	2		0			0				0.6999999999999999556				0		nan	0											17:01:26	17:01:29					0	wind	cloud	Planet1A.png	Ship1A.png	blank.png	blank.png		0
6.6.1	mac	0	2024-01-24	17:01:21	1	1	1	experiment	2	getValueVector	2970		0		1	1	1	1	1	no erasure	no erasure		1		0	0	165	3	21121	5173		0			0	0	2		0			0				0.6999999999999999556				0		nan	0											17:01:26	17:01:29					0	wind	cloud	Planet1A.png	Ship1A.png	blank.png	blank.png		0
6.6.1	mac	0	2024-01-24	17:01:21	1	1	1	experiment	2	getValueVector	2970		0		1	1	1	1	1	no erasure	no erasure		1		0	0	166	3	21121	5173		0			0	0	2		0			0				0.6999999999999999556				0		nan	0											17:01:26	17:01:29					0	wind	cloud	Planet1A.png	Ship1A.png	blank.png	blank.png		0
6.6.1	mac	0	2024-01-24	17:01:21	1	1	1	experiment	2	getValueVector	2970		0		1	1	1	1	1	no erasure	no erasure		1		0	0	167	3	21121	5173		0			0	0	2		0			0				0.6999999999999999556				0		nan	0											17:01:26	17:01:29					0	wind	cloud	Planet1A.png	Ship1A.png	blank.png	blank.png		0
6.6.1	mac	0	2024-01-24	17:01:21	1	1	1	experiment	2	getValueVector	2970		0		1	1	1	1	1	no erasure	no erasure		1		0	0	168	4	21121	5173		0			0	0	2		0			0				0.6999999999999999556				0		nan	0											17:01:26	17:01:29					0	wind	cloud	Planet1A.png	Ship1A.png	blank.png	blank.png		0
6.6.1	mac	0	2024-01-24	17:01:21	1	1	1	experiment	2	getValueVector	2970		0		1	1	1	1	1	no erasure	no erasure		1		0	0	169	4	21121	5173		0			0	0	2		0			0				0.6999999999999999556				0		nan	0											17:01:26	17:01:29					0	wind	cloud	Planet1A.png	Ship1A.png	blank.png	blank.png		0
6.6.1	mac	0	2024-01-24	17:01:21	1	1	1	experiment	2	getValueVector	2970		0		1	1	1	1	1	no erasure	no erasure		1		0	0	170	4	21121	5173		0			0	0	2		0			0				0.6999999999999999556				0		nan	0											17:01:26	17:01:29					0	wind	cloud	Planet1A.png	Ship1A.png	blank.png	blank.png		0
6.6.1	mac	0	2024-01-24	17:01:21	1	1	1	experiment	2	getValueVector	2970		0		1	1	1	1	1	no erasure	no erasure		1		0	0	171	5	21121	5173		0			0	0	2		0			0				0.6999999999999999556				0		nan	0											17:01:26	17:01:29					0	wind	cloud	Planet1A.png	Ship1A.png	blank.png	blank.png		0
6.6.1	mac	0	2024-01-24	17:01:21	1	1	1	experiment	2	getValueVector	2970		0		1	1	1	1	1	no erasure	no erasure		1		0	0	172	5	21121	5173		0			0	0	2		0			0				0.6999999999999999556				0		nan	0											17:01:26	17:01:29					0	wind	cloud	Planet1A.png	Ship1A.png	blank.png	blank.png		0
6.6.1	mac	0	2024-01-24	17:01:21	1	1	1	experiment	2	getValueVector	2970		0		1	1	1	1	1	no erasure	no erasure		1		0	0	173	5	21121	5173		0			0	0	2		0			0				0.6999999999999999556				0		nan	0											17:01:26	17:01:29					0	wind	cloud	Planet1A.png	Ship1A.png	blank.png	blank.png		0
6.6.1	mac	0	2024-01-24	17:01:21	1	1	1	experiment	2	getValueVector	2970		0		1	1	1	1	1	no erasure	no erasure		1		0	0	174	6	21121	5173		0			0	0	2		0			0				0.6999999999999999556				0		nan	0											17:01:26	17:01:29					0	wind	cloud	Planet1A.png	Ship1A.png	blank.png	blank.png		0
6.6.1	mac	0	2024-01-24	17:01:21	1	1	1	experiment	2	getValueVector	2970		0		1	1	1	1	1	no erasure	no erasure		1		0	0	175	6	21121	5173		0			0	0	2		0			0				0.6999999999999999556				0		nan	0											17:01:26	17:01:29					0	wind	cloud	Planet1A.png	Ship1A.png	blank.png	blank.png		0
6.6.1	mac	0	2024-01-24	17:01:21	1	1	1	experiment	2	getValueVector	2970		0		1	1	1	1	1	no erasure	no erasure		1		0	0	176	6	21121	5173		0			0	0	2		0			0				0.6999999999999999556				0		nan	0											17:01:26	17:01:29					0	wind	cloud	Planet1A.png	Ship1A.png	blank.png	blank.png		0
6.6.1	mac	0	2024-01-24	17:01:21	1	1	1	experiment	2	getValueVector	2970		0		1	1	1	1	1	no erasure	no erasure		1		0	0	177	7	21121	5173		0			0	0	2		0			0				0.6999999999999999556				0		nan	0											17:01:26	17:01:29					0	wind	cloud	Planet1A.png	Ship1A.png	blank.png	blank.png		0
6.6.1	mac	0	2024-01-24	17:01:21	1	1	1	experiment	2	getValueVector	2970		0		1	1	1	1	1	no erasure	no erasure		1		0	0	178	7	21121	5173		0			0	0	2		0			0				0.6999999999999999556				0		nan	0											17:01:26	17:01:29					0	wind	cloud	Planet1A.png	Ship1A.png	blank.png	blank.png		0
6.6.1	mac	0	2024-01-24	17:01:21	1	1	1	experiment	2	getValueVector	2970		0		1	1	1	1	1	no erasure	no erasure		1		0	0	179	8	21121	5173		0			0	0	2		0			0				0.6999999999999999556				0		nan	0											17:01:26	17:01:29					0	wind	cloud	Planet1A.png	Ship1A.png	blank.png	blank.png		0
6.6.1	mac	0	2024-01-24	17:01:21	1	1	1	experiment	2	getValueVector	2970		0		1	1	1	1	1	no erasure	no erasure		1		0	0	180	8	21121	5173		0			0	0	2		0			0				0.6999999999999999556				0		nan	0											17:01:26	17:01:29					0	wind	cloud	Planet1A.png	Ship1A.png	blank.png	blank.png		0
6.6.1	mac	0	2024-01-24	17:01:21	1	1	1	experiment	2	getValueVector	2970		0		1	1	1	1	1	no erasure	no erasure		1		0	0	181	8	21121	5173		0			0	0	2		0			0				0.6999999999999999556				0		nan	0											17:01:26	17:01:29					0	wind	cloud	Planet1A.png	Ship1A.png	blank.png	blank.png		0
6.6.1	mac	0	2024-01-24	17:01:21	1	1	1	experiment	2	getValueVector	2970		0		1	1	1	1	1	no erasure	no erasure		1		0	0	182	9	21121	5173		0			0	0	2		0			0				0.6999999999999999556				0		nan	0											17:01:26	17:01:29					0	wind	cloud	Planet1A.png	Ship1A.png	blank.png	blank.png		0
6.6.1	mac	0	2024-01-24	17:01:21	1	1	1	experiment	2	getValueVector	2970		0		1	1	1	1	1	no erasure	no erasure		1		0	0	183	9	21121	5173		0			0	0	2		0			0				0.6999999999999999556				0		nan	0											17:01:26	17:01:29					0	wind	cloud	Planet1A.png	Ship1A.png	blank.png	blank.png		0
6.6.1	mac	0	2024-01-24	17:01:21	1	1	1	experiment	2	getValueVector	2970		0		1	1	1	1	1	no erasure	no erasure		1		0	0	184	9	21121	5173		0			0	0	2		0			0				0.6999999999999999556				0		nan	0											17:01:26	17:01:29					0	wind	cloud	Planet1A.png	Ship1A.png	blank.png	blank.png		0
6.6.1	mac	0	2024-01-24	17:01:21	1	1	1	experiment	2	getValueVector	2970		0		1	1	1	1	1	no erasure	no erasure		1		0	0	185	10	21121	5173		0			0	0	2		0			0				0.6999999999999999556				0		nan	0											17:01:26	17:01:29					0	wind	cloud	Planet1A.png	Ship1A.png	blank.png	blank.png		0
6.6.1	mac	0	2024-01-24	17:01:21	1	1	1	experiment	2	getValueVector	2970		0		1	1	1	1	1	no erasure	no erasure		1		0	0	186	10	21121	5173		0			0	0	2		0			0				0.6999999999999999556				0		nan	0											17:01:26	17:01:29					0	wind	cloud	Planet1A.png	Ship1A.png	blank.png	blank.png		0
6.6.1	mac	0	2024-01-24	17:01:21	1	1	1	experiment	2	getValueVector	2970		0		1	1	1	1	1	no erasure	no erasure		1		0	0	187	11	21121	5173		0			0	0	2		0			0				0.6999999999999999556				0		nan	0											17:01:26	17:01:29					0	wind	cloud	Planet1A.png	Ship1A.png	blank.png	blank.png		0
6.6.1	mac	0	2024-01-24	17:01:21	1	1	1	experiment	2	getValueVector	2970		0		1	1	1	1	1	no erasure	no erasure		1		0	0	188	11	21121	5173		0			0	0	2		0			0				0.6999999999999999556				0		nan	0											17:01:26	17:01:29					0	wind	cloud	Planet1A.png	Ship1A.png	blank.png	blank.png		0
6.6.1	mac	0	2024-01-24	17:01:21	1	1	1	experiment	2	getValueVector	2970		0		1	1	1	1	1	no erasure	no erasure		1		0	0	189	11	21121	5173		0			0	0	2		0			0				0.6999999999999999556				0		nan	0											17:01:26	17:01:29					0	wind	cloud	Planet1A.png	Ship1A.png	blank.png	blank.png		0
6.6.1	mac	0	2024-01-24	17:01:21	1	1	1	experiment	2	getValueVector	2970		0		1	1	1	1	1	no erasure	no erasure		1		0	0	190	12	21121	5173		0			0	0	2		0			0				0.6999999999999999556				0		nan	0											17:01:26	17:01:29					0	wind	cloud	Planet1A.png	Ship1A.png	blank.png	blank.png		0
6.6.1	mac	0	2024-01-24	17:01:21	1	1	1	experiment	2	getValueVector	2970		0		1	1	1	1	1	no erasure	no erasure		1		0	0	191	12	21121	5173		0			0	0	2		0			0				0.6999999999999999556				0		nan	0											17:01:26	17:01:29					0	wind	cloud	Planet1A.png	Ship1A.png	blank.png	blank.png		0
6.6.1	mac	0	2024-01-24	17:01:21	1	1	1	experiment	2	getValueVector	2970		0		1	1	1	1	1	no erasure	no erasure		1		0	0	192	12	21121	5173		0			0	0	2		0			0				0.6999999999999999556				0		nan	0											17:01:26	17:01:29					0	wind	cloud	Planet1A.png	Ship1A.png	blank.png	blank.png		0
6.6.1	mac	0	2024-01-24	17:01:21	1	1	1	experiment	2	getValueVector	2970		0		1	1	1	1	1	no erasure	no erasure		1		0	0	193	12	21121	5173		0			0	0	2		0			0				0.6999999999999999556				0		nan	0											17:01:26	17:01:29					0	wind	cloud	Planet1A.png	Ship1A.png	blank.png	blank.png		0
6.6.1	mac	0	2024-01-24	17:01:21	1	1	1	experiment	2	getValueVector	2970		0		1	1	1	1	1	no erasure	no erasure		1		0	0	194	13	21121	5173		0			0	0	2		0			0				0.6999999999999999556				0		nan	0											17:01:26	17:01:29					0	wind	cloud	Planet1A.png	Ship1A.png	blank.png	blank.png		0
6.6.1	mac	0	2024-01-24	17:01:21	1	1	1	experiment	2	getValueVector	2970		0		1	1	1	1	1	no erasure	no erasure		1		0	0	195	13	21121	5173		0			0	0	2		0			0				0.6999999999999999556				0		nan	0											17:01:26	17:01:29					0	wind	cloud	Planet1A.png	Ship1A.png	blank.png	blank.png		0
6.6.1	mac	0	2024-01-24	17:01:21	1	1	1	experiment	2	getValueVector	2970		0		1	1	1	1	1	no erasure	no erasure		1		0	0	196	13	21121	5173		0			0	0	2		0			0				0.6999999999999999556				0		nan	0											17:01:26	17:01:29					0	wind	cloud	Planet1A.png	Ship1A.png	blank.png	blank.png		0
6.6.1	mac	0	2024-01-24	17:01:21	1	1	1	experiment	2	getValueVector	2970		0		1	1	1	1	1	no erasure	no erasure		1		0	0	197	14	21121	5173		0			0	0	2		0			0				0.6999999999999999556				0		nan	0											17:01:26	17:01:29					0	wind	cloud	Planet1A.png	Ship1A.png	blank.png	blank.png		0
6.6.1	mac	0	2024-01-24	17:01:21	1	1	1	experiment	2	getValueVector	2970		0		1	1	1	1	1	no erasure	no erasure		1		0	0	198	14	21121	5173		0			0	0	2		0			0				0.6999999999999999556				0		nan	0											17:01:26	17:01:29					0	wind	cloud	Planet1A.png	Ship1A.png	blank.png	blank.png		0
6.6.1	mac	0	2024-01-24	17:01:21	1	1	1	experiment	2	getValueVector	2970		0		1	1	1	1	1	no erasure	no erasure		1		0	0	199	14	21121	5173		0			0	0	2		0			0				0.6999999999999999556				0		nan	0											17:01:26	17:01:29					0	wind	cloud	Planet1A.png	Ship1A.png	blank.png	blank.png		0
6.6.1	mac	0	2024-01-24	17:01:21	1	1	1	experiment	2	getValueVector	2970		0		1	1	1	1	1	no erasure	no erasure		1		0	0	200	14	21121	5173		0			0	0	2		0			0				0.6999999999999999556				0		nan	0											17:01:26	17:01:29					0	wind	cloud	Planet1A.png	Ship1A.png	blank.png	blank.png		0
6.6.1	mac	0	2024-01-24	17:01:21	1	1	1	experiment	2	getValueVector	2970		0		1	1	1	1	1	no erasure	no erasure		1		0	0	201	15	21121	5173		0			0	0	2		0			0				0.6999999999999999556				0		nan	0											17:01:26	17:01:29					0	wind	cloud	Planet1A.png	Ship1A.png	blank.png	blank.png		0
6.6.1	mac	0	2024-01-24	17:01:21	1	1	1	experiment	2	getValueVector	2970		0		1	1	1	1	1	no erasure	no erasure		1		0	0	202	15	21121	5173		0			0	0	2		0			0				0.6999999999999999556				0		nan	0											17:01:26	17:01:29					0	wind	cloud	Planet1A.png	Ship1A.png	blank.png	blank.png		0
6.6.1	mac	0	2024-01-24	17:01:21	1	1	1	experiment	2	getValueVector	2970		0		1	1	1	1	1	no erasure	no erasure		1		0	0	203	15	21121	5173		0			0	0	2		0			0				0.6999999999999999556				0		nan	0											17:01:26	17:01:29					0	wind	cloud	Planet1A.png	Ship1A.png	blank.png	blank.png		0
6.6.1	mac	0	2024-01-24	17:01:21	1	1	1	experiment	2	getValueVector	2970		0		1	1	1	1	1	no erasure	no erasure		1		0	0	204	15	21121	5173		0			0	0	2		0			0				0.6999999999999999556				0		nan	0											17:01:26	17:01:29					0	wind	cloud	Planet1A.png	Ship1A.png	blank.png	blank.png		0
6.6.1	mac	0	2024-01-24	17:01:21	1	1	1	experiment	2	getValueVector	2970		0		1	1	1	1	1	no erasure	no erasure		1		0	0	205	15	21121	5173		0			0	0	2		0			0				0.6999999999999999556				0		nan	0											17:01:26	17:01:29					0	wind	cloud	Planet1A.png	Ship1A.png	blank.png	blank.png		0
6.6.1	mac	0	2024-01-24	17:01:21	1	1	1	experiment	2	getValueVector	2970		0		1	1	1	1	1	no erasure	no erasure		1		0	0	206	16	21121	5173		0			0	0	2		0			0				0.6999999999999999556				0		nan	0											17:01:26	17:01:29					0	wind	cloud	Planet1A.png	Ship1A.png	blank.png	blank.png		0
6.6.1	mac	0	2024-01-24	17:01:21	1	1	1	experiment	2	getValueVector	2970		0		1	1	1	1	1	no erasure	no erasure		1		0	0	207	16	21121	5173		0			0	0	2		0			0				0.6999999999999999556				0		nan	0											17:01:26	17:01:29					0	wind	cloud	Planet1A.png	Ship1A.png	blank.png	blank.png		0
6.6.1	mac	0	2024-01-24	17:01:21	1	1	1	experiment	2	getValueVector	2970		0		1	1	1	1	1	no erasure	no erasure		1		0	0	208	16	21121	5173		0			0	0	2		0			0				0.6999999999999999556				0		nan	0											17:01:26	17:01:29					0	wind	cloud	Planet1A.png	Ship1A.png	blank.png	blank.png		0
6.6.1	mac	0	2024-01-24	17:01:21	1	1	1	experiment	2	getValueVector	2970		0		1	1	1	1	1	no erasure	no erasure		1		0	0	209	16	21121	5173		0			0	0	2		0			0				0.6999999999999999556				0		nan	0											17:01:26	17:01:29					0	wind	cloud	Planet1A.png	Ship1A.png	blank.png	blank.png		0
6.6.1	mac	0	2024-01-24	17:01:21	1	1	1	experiment	2	getValueVector	2970		0		1	1	1	1	1	no erasure	no erasure		1		0	0	210	16	21121	5173		0			0	0	2		0			0				0.6999999999999999556				0		nan	0											17:01:26	17:01:29					0	wind	cloud	Planet1A.png	Ship1A.png	blank.png	blank.png		0
6.6.1	mac	0	2024-01-24	17:01:21	1	1	1	experiment	2	getValueVector	2970		0		1	1	1	1	1	no erasure	no erasure		1		0	0	211	16	21121	5173		0			0	0	2		0			0				0.6999999999999999556				0		nan	0											17:01:26	17:01:29					0	wind	cloud	Planet1A.png	Ship1A.png	blank.png	blank.png		0
6.6.1	mac	0	2024-01-24	17:01:21	1	1	1	experiment	2	getValueVector	2970		0		1	1	1	1	1	no erasure	no erasure		1		0	0	212	17	21121	5173		0			0	0	2		0			0				0.6999999999999999556				0		nan	0											17:01:26	17:01:29					0	wind	cloud	Planet1A.png	Ship1A.png	blank.png	blank.png		0
6.6.1	mac	0	2024-01-24	17:01:21	1	1	1	experiment	2	getValueVector	2970		0		1	1	1	1	1	no erasure	no erasure		1		0	0	213	17	21121	5173		0			0	0	2		0			0				0.6999999999999999556				0		nan	0											17:01:26	17:01:29					0	wind	cloud	Planet1A.png	Ship1A.png	blank.png	blank.png		0
6.6.1	mac	0	2024-01-24	17:01:21	1	1	1	experiment	2	getValueVector	2970		0		1	1	1	1	1	no erasure	no erasure		1		0	0	214	17	21121	5173		0			0	0	2		0			0				0.6999999999999999556				0		nan	0											17:01:26	17:01:29					0	wind	cloud	Planet1A.png	Ship1A.png	blank.png	blank.png		0
6.6.1	mac	0	2024-01-24	17:01:21	1	1	1	experiment	2	getValueVector	2970		0		1	1	1	1	1	no erasure	no erasure		1		0	0	215	17	21121	5173		0			0	0	2		0			0				0.6999999999999999556				0		nan	0											17:01:26	17:01:29					0	wind	cloud	Planet1A.png	Ship1A.png	blank.png	blank.png		0
6.6.1	mac	0	2024-01-24	17:01:21	1	1	1	experiment	2	getValueVector	2970		0		1	1	1	1	1	no erasure	no erasure		1		0	0	216	17	21121	5173		0			0	0	2		0			0				0.6999999999999999556				0		nan	0											17:01:26	17:01:29					0	wind	cloud	Planet1A.png	Ship1A.png	blank.png	blank.png		0
6.6.1	mac	0	2024-01-24	17:01:21	1	1	1	experiment	2	getValueVector	2970		0		1	1	1	1	1	no erasure	no erasure		1		0	0	217	17	21121	5173		0			0	0	2		0			0				0.6999999999999999556				0		nan	0											17:01:26	17:01:29					0	wind	cloud	Planet1A.png	Ship1A.png	blank.png	blank.png		0
6.6.1	mac	0	2024-01-24	17:01:21	1	1	1	experiment	2	getValueVector	2970		0		1	1	1	1	1	no erasure	no erasure		1		0	0	218	17	21121	5173		0			0	0	2		0			0				0.6999999999999999556				0		nan	0											17:01:26	17:01:29					0	wind	cloud	Planet1A.png	Ship1A.png	blank.png	blank.png		0
6.6.1	mac	0	2024-01-24	17:01:21	1	1	1	experiment	2	getValueVector	2970		0		1	1	1	1	1	no erasure	no erasure		1		0	0	219	17	21121	5173		0			0	0	2		0			0				0.6999999999999999556				0		nan	0											17:01:26	17:01:29					0	wind	cloud	Planet1A.png	Ship1A.png	blank.png	blank.png		0
6.6.1	mac	0	2024-01-24	17:01:21	1	1	1	experiment	2	getValueVector	2970		0		1	1	1	1	1	no erasure	no erasure		1		0	0	220	18	21121	5173		0			0	0	2		0			0				0.6999999999999999556				0		nan	0											17:01:26	17:01:29					0	wind	cloud	Planet1A.png	Ship1A.png	blank.png	blank.png		0
6.6.1	mac	0	2024-01-24	17:01:21	1	1	1	experiment	2	getValueVector	2970		0		1	1	1	1	1	no erasure	no erasure		1		0	0	221	18	21121	5173		0			0	0	2		0			0				0.6999999999999999556				0		nan	0											17:01:26	17:01:29					0	wind	cloud	Planet1A.png	Ship1A.png	blank.png	blank.png		0
6.6.1	mac	0	2024-01-24	17:01:21	1	1	1	experiment	2	getValueVector	2970		0		1	1	1	1	1	no erasure	no erasure		1		0	0	222	18	21121	5173		0			0	0	2		0			0				0.6999999999999999556				0		nan	0											17:01:26	17:01:29					0	wind	cloud	Planet1A.png	Ship1A.png	blank.png	blank.png		0
6.6.1	mac	0	2024-01-24	17:01:21	1	1	1	experiment	2	getValueVector	2970		0		1	1	1	1	1	no erasure	no erasure		1		0	0	223	18	21121	5173		0			0	0	2		0			0				0.6999999999999999556				0		nan	0											17:01:26	17:01:29					0	wind	cloud	Planet1A.png	Ship1A.png	blank.png	blank.png		0
6.6.1	mac	0	2024-01-24	17:01:21	1	1	1	experiment	2	getValueVector	2970		0		1	1	1	1	1	no erasure	no erasure		1		0	0	224	18	21121	5173		0			0	0	2		0			0				0.6999999999999999556				0		nan	0											17:01:26	17:01:29					0	wind	cloud	Planet1A.png	Ship1A.png	blank.png	blank.png		0
6.6.1	mac	0	2024-01-24	17:01:21	1	1	1	experiment	2	getValueVector	2970		0		1	1	1	1	1	no erasure	no erasure		1		0	0	225	18	21121	5173		0			0	0	2		0			0				0.6999999999999999556				0		nan	0											17:01:26	17:01:29					0	wind	cloud	Planet1A.png	Ship1A.png	blank.png	blank.png		0
6.6.1	mac	0	2024-01-24	17:01:21	1	1	1	experiment	2	getValueVector	2970		0		1	1	1	1	1	no erasure	no erasure		1		0	0	226	18	21121	5173		0			0	0	2		0			0				0.6999999999999999556				0		nan	0											17:01:26	17:01:29					0	wind	cloud	Planet1A.png	Ship1A.png	blank.png	blank.png		0
6.6.1	mac	0	2024-01-24	17:01:21	1	1	1	experiment	2	getValueVector	2970		0		1	1	1	1	1	no erasure	no erasure		1		0	0	227	19	21121	5173		0			0	0	2		0			0				0.6999999999999999556				0		nan	0											17:01:26	17:01:29					0	wind	cloud	Planet1A.png	Ship1A.png	blank.png	blank.png		0
6.6.1	mac	0	2024-01-24	17:01:21	1	1	1	experiment	2	getValueVector	2970		0		1	1	1	1	1	no erasure	no erasure		1		0	0	228	19	21121	5173		0			0	0	2		0			0				0.6999999999999999556				0		nan	0											17:01:26	17:01:29					0	wind	cloud	Planet1A.png	Ship1A.png	blank.png	blank.png		0
6.6.1	mac	0	2024-01-24	17:01:21	1	1	1	experiment	2	getValueVector	2970		0		1	1	1	1	1	no erasure	no erasure		1		0	0	229	19	21121	5173		0			0	0	2		0			0				0.6999999999999999556				0		nan	0											17:01:26	17:01:29					0	wind	cloud	Planet1A.png	Ship1A.png	blank.png	blank.png		0
6.6.1	mac	0	2024-01-24	17:01:21	1	1	1	experiment	2	getValueVector	2970		0		1	1	1	1	1	no erasure	no erasure		1		0	0	230	19	21121	5173		0			0	0	2		0			0				0.6999999999999999556				0		nan	0											17:01:26	17:01:29					0	wind	cloud	Planet1A.png	Ship1A.png	blank.png	blank.png		0
6.6.1	mac	0	2024-01-24	17:01:21	1	1	1	experiment	2	getValueVector	2970		0		1	1	1	1	1	no erasure	no erasure		1		0	0	231	19	21121	5173		0			0	0	2		0			0				0.6999999999999999556				0		nan	0											17:01:26	17:01:29					0	wind	cloud	Planet1A.png	Ship1A.png	blank.png	blank.png		0
6.6.1	mac	0	2024-01-24	17:01:21	1	1	1	experiment	2	getValueVector	2970		0		1	1	1	1	1	no erasure	no erasure		1		0	0	232	19	21121	5173		0			0	0	2		0			0				0.6999999999999999556				0		nan	0											17:01:26	17:01:29					0	wind	cloud	Planet1A.png	Ship1A.png	blank.png	blank.png		0
6.6.1	mac	0	2024-01-24	17:01:21	1	1	1	experiment	2	getValueVector	2970		0		1	1	1	1	1	no erasure	no erasure		1		0	0	233	20	21121	5173		0			0	0	2		0			0				0.6999999999999999556				0		nan	0											17:01:26	17:01:29					0	wind	cloud	Planet1A.png	Ship1A.png	blank.png	blank.png		0
6.6.1	mac	0	2024-01-24	17:01:21	1	1	1	experiment	2	getValueVector	2970		0		1	1	1	1	1	no erasure	no erasure		1		0	0	234	20	21121	5173		0			0	0	2		0			0				0.6999999999999999556				0		nan	0											17:01:26	17:01:29					0	wind	cloud	Planet1A.png	Ship1A.png	blank.png	blank.png		0
6.6.1	mac	0	2024-01-24	17:01:21	1	1	1	experiment	2	getValueVector	2970		0		1	1	1	1	1	no erasure	no erasure		1		0	0	235	20	21121	5173		0			0	0	2		0			0				0.6999999999999999556				0		nan	0											17:01:26	17:01:29					0	wind	cloud	Planet1A.png	Ship1A.png	blank.png	blank.png		0
6.6.1	mac	0	2024-01-24	17:01:21	1	1	1	experiment	2	getValueVector	2970		0		1	1	1	1	1	no erasure	no erasure		1		0	0	236	20	21121	5173		0			0	0	2		0			0				0.6999999999999999556				0		nan	0											17:01:26	17:01:29					0	wind	cloud	Planet1A.png	Ship1A.png	blank.png	blank.png		0
6.6.1	mac	0	2024-01-24	17:01:21	1	1	1	experiment	2	getValueVector	2970		0		1	1	1	1	1	no erasure	no erasure		1		0	0	237	20	21121	5173		0			0	0	2		0			0				0.6999999999999999556				0		nan	0											17:01:26	17:01:29					0	wind	cloud	Planet1A.png	Ship1A.png	blank.png	blank.png		0
6.6.1	mac	0	2024-01-24	17:01:21	1	1	1	experiment	2	getValueVector	2970		0		1	1	1	1	1	no erasure	no erasure		1		0	0	238	20	21121	5173		0			0	0	2		0			0				0.6999999999999999556				0		nan	0											17:01:26	17:01:29					0	wind	cloud	Planet1A.png	Ship1A.png	blank.png	blank.png		0
6.6.1	mac	0	2024-01-24	17:01:21	1	1	1	experiment	2	getValueVector	2970		0		1	1	1	1	1	no erasure	no erasure		1		0	0	239	21	21121	5173		0			0	0	2		0			0				0.6999999999999999556				0		nan	0											17:01:26	17:01:29					0	wind	cloud	Planet1A.png	Ship1A.png	blank.png	blank.png		0
6.6.1	mac	0	2024-01-24	17:01:21	1	1	1	experiment	2	getValueVector	2970		0		1	1	1	1	1	no erasure	no erasure		1		0	0	240	21	21121	5173		0			0	0	2		0			0				0.6999999999999999556				0		nan	0											17:01:26	17:01:29					0	wind	cloud	Planet1A.png	Ship1A.png	blank.png	blank.png		0
6.6.1	mac	0	2024-01-24	17:01:21	1	1	1	experiment	2	getValueVector	2970		0		1	1	1	1	1	no erasure	no erasure		1		0	0	241	21	21121	5173		0			0	0	2		0			0				0.6999999999999999556				0		nan	0											17:01:26	17:01:29					0	wind	cloud	Planet1A.png	Ship1A.png	blank.png	blank.png		0
6.6.1	mac	0	2024-01-24	17:01:21	1	1	1	experiment	2	getValueVector	2970		0		1	1	1	1	1	no erasure	no erasure		1		0	0	242	21	21121	5173		0			0	0	2		0			0				0.6999999999999999556				0		nan	0											17:01:26	17:01:29					0	wind	cloud	Planet1A.png	Ship1A.png	blank.png	blank.png		0
6.6.1	mac	0	2024-01-24	17:01:21	1	1	1	experiment	2	getValueVector	2970		0		1	1	1	1	1	no erasure	no erasure		1		0	0	243	21	21121	5173		0			0	0	2		0			0				0.6999999999999999556				0		nan	0											17:01:26	17:01:29					0	wind	cloud	Planet1A.png	Ship1A.png	blank.png	blank.png		0
6.6.1	mac	0	2024-01-24	17:01:21	1	1	1	experiment	2	getValueVector	2970		0		1	1	1	1	1	no erasure	no erasure		1		0	0	244	21	21121	5173		0			0	0	2		0			0				0.6999999999999999556				0		nan	0											17:01:26	17:01:29					0	wind	cloud	Planet1A.png	Ship1A.png	blank.png	blank.png		0
6.6.1	mac	0	2024-01-24	17:01:21	1	1	1	experiment	2	getValueVector	2970		0		1	1	1	1	1	no erasure	no erasure		1		0	0	245	21	21121	5173		0			0	0	2		0			0				0.6999999999999999556				0		nan	0											17:01:26	17:01:29					0	wind	cloud	Planet1A.png	Ship1A.png	blank.png	blank.png		0
6.6.1	mac	0	2024-01-24	17:01:21	1	1	1	experiment	2	getValueVector	2970		0		1	1	1	1	1	no erasure	no erasure		1		0	0	246	22	21121	5173		0			0	0	2		0			0				0.6999999999999999556				0		nan	0											17:01:26	17:01:29					0	wind	cloud	Planet1A.png	Ship1A.png	blank.png	blank.png		0
6.6.1	mac	0	2024-01-24	17:01:21	1	1	1	experiment	2	getValueVector	2970		0		1	1	1	1	1	no erasure	no erasure		1		0	0	247	22	21121	5173		0			0	0	2		0			0				0.6999999999999999556				0		nan	0											17:01:26	17:01:29					0	wind	cloud	Planet1A.png	Ship1A.png	blank.png	blank.png		0
6.6.1	mac	0	2024-01-24	17:01:21	1	1	1	experiment	2	getValueVector	2970		0		1	1	1	1	1	no erasure	no erasure		1		0	0	248	22	21121	5173		0			0	0	2		0			0				0.6999999999999999556				0		nan	0											17:01:26	17:01:29					0	wind	cloud	Planet1A.png	Ship1A.png	blank.png	blank.png		0
6.6.1	mac	0	2024-01-24	17:01:21	1	1	1	experiment	2	getValueVector	2970		0		1	1	1	1	1	no erasure	no erasure		1		0	0	249	22	21121	5173		0			0	0	2		0			0				0.6999999999999999556				0		nan	0											17:01:26	17:01:29					0	wind	cloud	Planet1A.png	Ship1A.png	blank.png	blank.png		0
6.6.1	mac	0	2024-01-24	17:01:21	1	1	1	experiment	2	getValueVector	2970		0		1	1	1	1	1	no erasure	no erasure		1		0	0	250	22	21121	5173		0			0	0	2		0			0				0.6999999999999999556				0		nan	0											17:01:26	17:01:29					0	wind	cloud	Planet1A.png	Ship1A.png	blank.png	blank.png		0
6.6.1	mac	0	2024-01-24	17:01:21	1	1	1	experiment	2	getValueVector	2970		0		1	1	1	1	1	no erasure	no erasure		1		0	0	251	22	21121	5173		0			0	0	2		0			0				0.6999999999999999556				0		nan	0											17:01:26	17:01:29					0	wind	cloud	Planet1A.png	Ship1A.png	blank.png	blank.png		0
6.6.1	mac	0	2024-01-24	17:01:21	1	1	1	experiment	2	getValueVector	2970		0		1	1	1	1	1	no erasure	no erasure		1		0	0	252	22	21121	5173		0			0	0	2		0			0				0.6999999999999999556				0		nan	0											17:01:26	17:01:29					0	wind	cloud	Planet1A.png	Ship1A.png	blank.png	blank.png		0
6.6.1	mac	0	2024-01-24	17:01:21	1	1	1	experiment	2	getValueVector	2970		0		1	1	1	1	1	no erasure	no erasure		1		0	0	253	22	21121	5173		0			0	0	2		0			0				0.6999999999999999556				0		nan	0											17:01:26	17:01:29					0	wind	cloud	Planet1A.png	Ship1A.png	blank.png	blank.png		0
6.6.1	mac	0	2024-01-24	17:01:21	1	1	1	experiment	2	getValueVector	2970		0		1	1	1	1	1	no erasure	no erasure		1		0	0	254	22	21121	5173		0			0	0	2		0			0				0.6999999999999999556				0		nan	0											17:01:26	17:01:29					0	wind	cloud	Planet1A.png	Ship1A.png	blank.png	blank.png		0
6.6.1	mac	0	2024-01-24	17:01:21	1	1	1	experiment	2	getValueVector	2970		0		1	1	1	1	1	no erasure	no erasure		1		0	0	255	23	21121	5173		0			0	0	2		0			0				0.6999999999999999556				0		nan	0											17:01:26	17:01:29					0	wind	cloud	Planet1A.png	Ship1A.png	blank.png	blank.png		0
6.6.1	mac	0	2024-01-24	17:01:21	1	1	1	experiment	2	getValueVector	2970		0		1	1	1	1	1	no erasure	no erasure		1		0	0	256	23	21121	5173		0			0	0	2		0			0				0.6999999999999999556				0		nan	0											17:01:26	17:01:29					0	wind	cloud	Planet1A.png	Ship1A.png	blank.png	blank.png		0
6.6.1	mac	0	2024-01-24	17:01:21	1	1	1	experiment	2	getValueVector	2970		0		1	1	1	1	1	no erasure	no erasure		1		0	0	257	23	21121	5173		0			0	0	2		0			0				0.6999999999999999556				0		nan	0											17:01:26	17:01:29					0	wind	cloud	Planet1A.png	Ship1A.png	blank.png	blank.png		0
6.6.1	mac	0	2024-01-24	17:01:21	1	1	1	experiment	2	getValueVector	2970		0		1	1	1	1	1	no erasure	no erasure		1		0	0	258	23	21121	5173		0			0	0	2		0			0				0.6999999999999999556				0		nan	0											17:01:26	17:01:29					0	wind	cloud	Planet1A.png	Ship1A.png	blank.png	blank.png		0
6.6.1	mac	0	2024-01-24	17:01:21	1	1	1	experiment	2	getValueVector	2970		0		1	1	1	1	1	no erasure	no erasure		1		0	0	259	23	21121	5173		0			0	0	2		0			0				0.6999999999999999556				0		nan	0											17:01:26	17:01:29					0	wind	cloud	Planet1A.png	Ship1A.png	blank.png	blank.png		0
6.6.1	mac	0	2024-01-24	17:01:21	1	1	1	experiment	2	getValueVector	2970		0		1	1	1	1	1	no erasure	no erasure		1		0	0	260	23	21121	5173		0			0	0	2		0			0				0.6999999999999999556				0		nan	0											17:01:26	17:01:29					0	wind	cloud	Planet1A.png	Ship1A.png	blank.png	blank.png		0
6.6.1	mac	0	2024-01-24	17:01:21	1	1	1	experiment	2	getValueVector	2970		0		1	1	1	1	1	no erasure	no erasure		1		0	0	261	23	21121	5173		0			0	0	2		0			0				0.6999999999999999556				0		nan	0											17:01:26	17:01:29					0	wind	cloud	Planet1A.png	Ship1A.png	blank.png	blank.png		0
6.6.1	mac	0	2024-01-24	17:01:21	1	1	1	experiment	2	getValueVector	2970		0		1	1	1	1	1	no erasure	no erasure		1		0	0	262	23	21121	5173		0			0	0	2		0			0				0.6999999999999999556				0		nan	0											17:01:26	17:01:29					0	wind	cloud	Planet1A.png	Ship1A.png	blank.png	blank.png		0
6.6.1	mac	0	2024-01-24	17:01:21	1	1	1	experiment	2	getValueVector	2970		0		1	1	1	1	1	no erasure	no erasure		1		0	0	263	22	21121	5173		0			0	0	2		0			0				0.6999999999999999556				0		nan	0											17:01:26	17:01:29					0	wind	cloud	Planet1A.png	Ship1A.png	blank.png	blank.png		0
6.6.1	mac	0	2024-01-24	17:01:21	1	1	1	experiment	2	getValueVector	2970		0		1	1	1	1	1	no erasure	no erasure		1		0	0	264	22	21121	5173		0			0	0	2		0			0				0.6999999999999999556				0		nan	0											17:01:26	17:01:29					0	wind	cloud	Planet1A.png	Ship1A.png	blank.png	blank.png		0
6.6.1	mac	0	2024-01-24	17:01:21	1	1	1	experiment	2	getValueVector	2970		0		1	1	1	1	1	no erasure	no erasure		1		0	0	265	22	21121	5173		0			0	0	2		0			0				0.6999999999999999556				0		nan	0											17:01:26	17:01:29					0	wind	cloud	Planet1A.png	Ship1A.png	blank.png	blank.png		0
6.6.1	mac	0	2024-01-24	17:01:21	1	1	1	experiment	2	getValueVector	2970		0		1	1	1	1	1	no erasure	no erasure		1		0	0	266	22	21121	5173		0			0	0	2		0			0				0.6999999999999999556				0		nan	0											17:01:26	17:01:29					0	wind	cloud	Planet1A.png	Ship1A.png	blank.png	blank.png		0
6.6.1	mac	0	2024-01-24	17:01:21	1	1	1	experiment	2	getValueVector	2970		0		1	1	1	1	1	no erasure	no erasure		1		0	0	267	22	21121	5173		0			0	0	2		0			0				0.6999999999999999556				0		nan	0											17:01:26	17:01:29					0	wind	cloud	Planet1A.png	Ship1A.png	blank.png	blank.png		0
6.6.1	mac	0	2024-01-24	17:01:21	1	1	1	experiment	2	getValueVector	2970		0		1	1	1	1	1	no erasure	no erasure		1		0	0	268	22	21121	5173		0			0	0	2		0			0				0.6999999999999999556				0		nan	0											17:01:26	17:01:29					0	wind	cloud	Planet1A.png	Ship1A.png	blank.png	blank.png		0
6.6.1	mac	0	2024-01-24	17:01:21	1	1	1	experiment	2	getValueVector	2970		0		1	1	1	1	1	no erasure	no erasure		1		0	0	269	22	21121	5173		0			0	0	2		0			0				0.6999999999999999556				0		nan	0											17:01:26	17:01:29					0	wind	cloud	Planet1A.png	Ship1A.png	blank.png	blank.png		0
6.6.1	mac	0	2024-01-24	17:01:21	1	1	1	experiment	2	getValueVector	2970		0		1	1	1	1	1	no erasure	no erasure		1		0	0	270	22	21121	5173		0			0	0	2		0			0				0.6999999999999999556				0		nan	0											17:01:26	17:01:29					0	wind	cloud	Planet1A.png	Ship1A.png	blank.png	blank.png		0
6.6.1	mac	0	2024-01-24	17:01:21	1	1	1	experiment	2	getValueVector	2970		0		1	1	1	1	1	no erasure	no erasure		1		0	0	271	22	21121	5173		0			0	0	2		0			0				0.6999999999999999556				0		nan	0											17:01:26	17:01:29					0	wind	cloud	Planet1A.png	Ship1A.png	blank.png	blank.png		0
6.6.1	mac	0	2024-01-24	17:01:21	1	1	1	experiment	2	getValueVector	2970		0		1	1	1	1	1	no erasure	no erasure		1		0	0	272	21	21121	5173		0			0	0	2		0			0				0.6999999999999999556				0		nan	0											17:01:26	17:01:29					0	wind	cloud	Planet1A.png	Ship1A.png	blank.png	blank.png		0
6.6.1	mac	0	2024-01-24	17:01:21	1	1	1	experiment	2	getValueVector	2970		0		1	1	1	1	1	no erasure	no erasure		1		0	0	273	21	21121	5173		0			0	0	2		0			0				0.6999999999999999556				0		nan	0											17:01:26	17:01:29					0	wind	cloud	Planet1A.png	Ship1A.png	blank.png	blank.png		0
6.6.1	mac	0	2024-01-24	17:01:21	1	1	1	experiment	2	getValueVector	2970		0		1	1	1	1	1	no erasure	no erasure		1		0	0	274	21	21121	5173		0			0	0	2		0			0				0.6999999999999999556				0		nan	0											17:01:26	17:01:29					0	wind	cloud	Planet1A.png	Ship1A.png	blank.png	blank.png		0
6.6.1	mac	0	2024-01-24	17:01:21	1	1	1	experiment	2	getValueVector	2970		0		1	1	1	1	1	no erasure	no erasure		1		0	0	275	21	21121	5173		0			0	0	2		0			0				0.6999999999999999556				0		nan	0											17:01:26	17:01:29					0	wind	cloud	Planet1A.png	Ship1A.png	blank.png	blank.png		0
6.6.1	mac	0	2024-01-24	17:01:21	1	1	1	experiment	2	getValueVector	2970		0		1	1	1	1	1	no erasure	no erasure		1		0	0	276	21	21121	5173		0			0	0	2		0			0				0.6999999999999999556				0		nan	0											17:01:26	17:01:29					0	wind	cloud	Planet1A.png	Ship1A.png	blank.png	blank.png		0
6.6.1	mac	0	2024-01-24	17:01:21	1	1	1	experiment	2	getValueVector	2970		0		1	1	1	1	1	no erasure	no erasure		1		0	0	277	20	21121	5173		0			0	0	2		0			0				0.6999999999999999556				0		nan	0											17:01:26	17:01:29					0	wind	cloud	Planet1A.png	Ship1A.png	blank.png	blank.png		0
6.6.1	mac	0	2024-01-24	17:01:21	1	1	1	experiment	2	getValueVector	2970		0		1	1	1	1	1	no erasure	no erasure		1		0	0	278	20	21121	5173		0			0	0	2		0			0				0.6999999999999999556				0		nan	0											17:01:26	17:01:29					0	wind	cloud	Planet1A.png	Ship1A.png	blank.png	blank.png		0
6.6.1	mac	0	2024-01-24	17:01:21	1	1	1	experiment	2	getValueVector	2970		0		1	1	1	1	1	no erasure	no erasure		1		0	0	279	20	21121	5173		0			0	0	2		0			0				0.6999999999999999556				0		nan	0											17:01:26	17:01:29					0	wind	cloud	Planet1A.png	Ship1A.png	blank.png	blank.png		0
6.6.1	mac	0	2024-01-24	17:01:21	1	1	1	experiment	2	getValueVector	2970		0		1	1	1	1	1	no erasure	no erasure		1		0	0	280	20	21121	5173		0			0	0	2		0			0				0.6999999999999999556				0		nan	0											17:01:26	17:01:29					0	wind	cloud	Planet1A.png	Ship1A.png	blank.png	blank.png		0
6.6.1	mac	0	2024-01-24	17:01:21	1	1	1	experiment	2	getValueVector	2970		0		1	1	1	1	1	no erasure	no erasure		1		0	0	281	19	21121	5173		0			0	0	2		0			0				0.6999999999999999556				0		nan	0											17:01:26	17:01:29					0	wind	cloud	Planet1A.png	Ship1A.png	blank.png	blank.png		0
6.6.1	mac	0	2024-01-24	17:01:21	1	1	1	experiment	2	getValueVector	2970		0		1	1	1	1	1	no erasure	no erasure		1		0	0	282	19	21121	5173		0			0	0	2		0			0				0.6999999999999999556				0		nan	0											17:01:26	17:01:29					0	wind	cloud	Planet1A.png	Ship1A.png	blank.png	blank.png		0
6.6.1	mac	0	2024-01-24	17:01:21	1	1	1	experiment	2	getValueVector	2970		0		1	1	1	1	1	no erasure	no erasure		1		0	0	283	19	21121	5173		0			0	0	2		0			0				0.6999999999999999556				0		nan	0											17:01:26	17:01:29					0	wind	cloud	Planet1A.png	Ship1A.png	blank.png	blank.png		0
6.6.1	mac	0	2024-01-24	17:01:21	1	1	1	experiment	2	getValueVector	2970		0		1	1	1	1	1	no erasure	no erasure		1		0	0	284	19	21121	5173		0			0	0	2		0			0				0.6999999999999999556				0		nan	0											17:01:26	17:01:29					0	wind	cloud	Planet1A.png	Ship1A.png	blank.png	blank.png		0
6.6.1	mac	0	2024-01-24	17:01:21	1	1	1	experiment	2	getValueVector	2970		0		1	1	1	1	1	no erasure	no erasure		1		0	0	285	18	21121	5173		0			0	0	2		0			0				0.6999999999999999556				0		nan	0											17:01:26	17:01:29					0	wind	cloud	Planet1A.png	Ship1A.png	blank.png	blank.png		0
6.6.1	mac	0	2024-01-24	17:01:21	1	1	1	experiment	2	getValueVector	2970		0		1	1	1	1	1	no erasure	no erasure		1		0	0	286	18	21121	5173		0			0	0	2		0			0				0.6999999999999999556				0		nan	0											17:01:26	17:01:29					0	wind	cloud	Planet1A.png	Ship1A.png	blank.png	blank.png		0
6.6.1	mac	0	2024-01-24	17:01:21	1	1	1	experiment	2	getValueVector	2970		0		1	1	1	1	1	no erasure	no erasure		1		0	0	287	18	21121	5173		0			0	0	2		0			0				0.6999999999999999556				0		nan	0											17:01:26	17:01:29					0	wind	cloud	Planet1A.png	Ship1A.png	blank.png	blank.png		0
6.6.1	mac	0	2024-01-24	17:01:21	1	1	1	experiment	2	getValueVector	2970		0		1	1	1	1	1	no erasure	no erasure		1		0	0	288	18	21121	5173		0			0	0	2		0			0				0.6999999999999999556				0		nan	0											17:01:26	17:01:29					0	wind	cloud	Planet1A.png	Ship1A.png	blank.png	blank.png		0
6.6.1	mac	0	2024-01-24	17:01:21	1	1	1	experiment	2	getValueVector	2970		0		1	1	1	1	1	no erasure	no erasure		1		0	0	289	18	21121	5173		0			0	0	2		0			0				0.6999999999999999556				0		nan	0											17:01:26	17:01:29					0	wind	cloud	Planet1A.png	Ship1A.png	blank.png	blank.png		0
6.6.1	mac	0	2024-01-24	17:01:21	1	1	1	experiment	2	getValueVector	2970		0		1	1	1	1	1	no erasure	no erasure		1		0	0	290	17	21121	5173		0			0	0	2		0			0				0.6999999999999999556				0		nan	0											17:01:26	17:01:29					0	wind	cloud	Planet1A.png	Ship1A.png	blank.png	blank.png		0
6.6.1	mac	0	2024-01-24	17:01:21	1	1	1	experiment	2	getValueVector	2970		0		1	1	1	1	1	no erasure	no erasure		1		0	0	291	17	21121	5173		0			0	0	2		0			0				0.6999999999999999556				0		nan	0											17:01:26	17:01:29					0	wind	cloud	Planet1A.png	Ship1A.png	blank.png	blank.png		0
6.6.1	mac	0	2024-01-24	17:01:21	1	1	1	experiment	2	getValueVector	2970		0		1	1	1	1	1	no erasure	no erasure		1		0	0	292	17	21121	5173		0			0	0	2		0			0				0.6999999999999999556				0		nan	0											17:01:26	17:01:29					0	wind	cloud	Planet1A.png	Ship1A.png	blank.png	blank.png		0
6.6.1	mac	0	2024-01-24	17:01:21	1	1	1	experiment	2	getValueVector	2970		0		1	1	1	1	1	no erasure	no erasure		1		0	0	293	17	21121	5173		0			0	0	2		0			0				0.6999999999999999556				0		nan	0											17:01:26	17:01:29					0	wind	cloud	Planet1A.png	Ship1A.png	blank.png	blank.png		0
6.6.1	mac	0	2024-01-24	17:01:21	1	1	1	experiment	2	getValueVector	2970		0		1	1	1	1	1	no erasure	no erasure		1		0	0	294	17	21121	5173		0			0	0	2		0			0				0.6999999999999999556				0		nan	0											17:01:26	17:01:29					0	wind	cloud	Planet1A.png	Ship1A.png	blank.png	blank.png		0
6.6.1	mac	0	2024-01-24	17:01:21	1	1	1	experiment	2	getValueVector	2970		0		1	1	1	1	1	no erasure	no erasure		1		0	0	295	17	21121	5173		0			0	0	2		0			0				0.6999999999999999556				0		nan	0											17:01:26	17:01:29					0	wind	cloud	Planet1A.png	Ship1A.png	blank.png	blank.png		0
6.6.1	mac	0	2024-01-24	17:01:21	1	1	1	experiment	2	getValueVector	2970		0		1	1	1	1	1	no erasure	no erasure		1		0	0	296	17	21121	5173		0			0	0	2		0			0				0.6999999999999999556				0		nan	0											17:01:26	17:01:29					0	wind	cloud	Planet1A.png	Ship1A.png	blank.png	blank.png		0
6.6.1	mac	0	2024-01-24	17:01:21	1	1	1	experiment	2	getValueVector	2970		0		1	1	1	1	1	no erasure	no erasure		1		0	0	297	17	21121	5173		0			0	0	2		0			0				0.6999999999999999556				0		nan	0											17:01:26	17:01:29					0	wind	cloud	Planet1A.png	Ship1A.png	blank.png	blank.png		0
6.6.1	mac	0	2024-01-24	17:01:21	1	1	1	experiment	2	getValueVector	2970		0		1	1	1	1	1	no erasure	no erasure		1		0	0	298	16	21121	5173		0			0	0	2		0			0				0.6999999999999999556				0		nan	0											17:01:26	17:01:29					0	wind	cloud	Planet1A.png	Ship1A.png	blank.png	blank.png		0
6.6.1	mac	0	2024-01-24	17:01:21	1	1	1	experiment	2	getValueVector	2970		0		1	1	1	1	1	no erasure	no erasure		1		0	0	299	16	21121	5173		0			0	0	2		0			0				0.6999999999999999556				0		nan	0											17:01:26	17:01:29					0	wind	cloud	Planet1A.png	Ship1A.png	blank.png	blank.png		0
6.6.1	mac	0	2024-01-24	17:01:21	1	1	1	experiment	2	getValueVector	2970		0		1	1	1	1	1	no erasure	no erasure		1		0	0	300	16	21121	5173		0			0	0	2		0			0				0.6999999999999999556				0		nan	0											17:01:26	17:01:29					0	wind	cloud	Planet1A.png	Ship1A.png	blank.png	blank.png		0
6.6.1	mac	0	2024-01-24	17:01:21	1	1	1	experiment	2	getValueVector	2970		0		1	1	1	1	1	no erasure	no erasure		1		0	0	301	17	21121	5173		0			0	0	2		0			0				0.6999999999999999556				0		nan	0											17:01:26	17:01:29					0	wind	cloud	Planet1A.png	Ship1A.png	blank.png	blank.png		0
6.6.1	mac	0	2024-01-24	17:01:21	1	1	1	experiment	2	getValueVector	2970		0		1	1	1	1	1	no erasure	no erasure		1		0	0	302	17	21121	5173		0			0	0	2		0			0				0.6999999999999999556				0		nan	0											17:01:26	17:01:29					0	wind	cloud	Planet1A.png	Ship1A.png	blank.png	blank.png		0
6.6.1	mac	0	2024-01-24	17:01:21	1	1	1	experiment	2	getValueVector	2970		0		1	1	1	1	1	no erasure	no erasure		1		0	0	303	17	21121	5173		0			0	0	2		0			0				0.6999999999999999556				0		nan	0											17:01:26	17:01:29					0	wind	cloud	Planet1A.png	Ship1A.png	blank.png	blank.png		0
6.6.1	mac	0	2024-01-24	17:01:21	1	1	1	experiment	2	getValueVector	2970		0		1	1	1	1	1	no erasure	no erasure		1		0	0	304	17	21121	5173		0			0	0	2		0			0				0.6999999999999999556				0		nan	0											17:01:26	17:01:29					0	wind	cloud	Planet1A.png	Ship1A.png	blank.png	blank.png		0
6.6.1	mac	0	2024-01-24	17:01:21	1	1	1	experiment	2	getValueVector	2970		0		1	1	1	1	1	no erasure	no erasure		1		0	0	305	17	21121	5173		0			0	0	2		0			0				0.6999999999999999556				0		nan	0											17:01:26	17:01:29					0	wind	cloud	Planet1A.png	Ship1A.png	blank.png	blank.png		0
6.6.1	mac	0	2024-01-24	17:01:21	1	1	1	experiment	2	getValueVector	2970		0		1	1	1	1	1	no erasure	no erasure		1		0	0	306	17	21121	5173		0			0	0	2		0			0				0.6999999999999999556				0		nan	0											17:01:26	17:01:29					0	wind	cloud	Planet1A.png	Ship1A.png	blank.png	blank.png		0
6.6.1	mac	0	2024-01-24	17:01:21	1	1	1	experiment	2	getValueVector	2970		0		1	1	1	1	1	no erasure	no erasure		1		0	0	307	17	21121	5173		0			0	0	2		0			0				0.6999999999999999556				0		nan	0											17:01:26	17:01:29					0	wind	cloud	Planet1A.png	Ship1A.png	blank.png	blank.png		0
6.6.1	mac	0	2024-01-24	17:01:21	1	1	1	experiment	2	getValueVector	2970		0		1	1	1	1	1	no erasure	no erasure		1		0	0	308	18	21121	5173		0			0	0	2		0			0				0.6999999999999999556				0		nan	0											17:01:26	17:01:29					0	wind	cloud	Planet1A.png	Ship1A.png	blank.png	blank.png		0
6.6.1	mac	0	2024-01-24	17:01:21	1	1	1	experiment	2	getValueVector	2970		0		1	1	1	1	1	no erasure	no erasure		1		0	0	309	18	21121	5173		0			0	0	2		0			0				0.6999999999999999556				0		nan	0											17:01:26	17:01:29					0	wind	cloud	Planet1A.png	Ship1A.png	blank.png	blank.png		0
6.6.1	mac	0	2024-01-24	17:01:21	1	1	1	experiment	2	getValueVector	2970		0		1	1	1	1	1	no erasure	no erasure		1		0	0	310	18	21121	5173		0			0	0	2		0			0				0.6999999999999999556				0		nan	0											17:01:26	17:01:29					0	wind	cloud	Planet1A.png	Ship1A.png	blank.png	blank.png		0
6.6.1	mac	0	2024-01-24	17:01:21	1	1	1	experiment	2	getValueVector	2970		0		1	1	1	1	1	no erasure	no erasure		1		0	0	311	19	21121	5173		0			0	0	2		0			0				0.6999999999999999556				0		nan	0											17:01:26	17:01:29					0	wind	cloud	Planet1A.png	Ship1A.png	blank.png	blank.png		0
6.6.1	mac	0	2024-01-24	17:01:21	1	1	1	experiment	2	getValueVector	2970		0		1	1	1	1	1	no erasure	no erasure		1		0	0	312	19	21121	5173		0			0	0	2		0			0				0.6999999999999999556				0		nan	0											17:01:26	17:01:29					0	wind	cloud	Planet1A.png	Ship1A.png	blank.png	blank.png		0
6.6.1	mac	0	2024-01-24	17:01:21	1	1	1	experiment	2	getValueVector	2970		0		1	1	1	1	1	no erasure	no erasure		1		0	0	313	19	21121	5173		0			0	0	2		0			0				0.6999999999999999556				0		nan	0											17:01:26	17:01:29					0	wind	cloud	Planet1A.png	Ship1A.png	blank.png	blank.png		0
6.6.1	mac	0	2024-01-24	17:01:21	1	1	1	experiment	2	getValueVector	2970		0		1	1	1	1	1	no erasure	no erasure		1		0	0	314	20	21121	5173		0			0	0	2		0			0				0.6999999999999999556				0		nan	0											17:01:26	17:01:29					0	wind	cloud	Planet1A.png	Ship1A.png	blank.png	blank.png		0
6.6.1	mac	0	2024-01-24	17:01:21	1	1	1	experiment	2	getValueVector	2970		0		1	1	1	1	1	no erasure	no erasure		1		0	0	315	20	21121	5173		0			0	0	2		0			0				0.6999999999999999556				0		nan	0											17:01:26	17:01:29					0	wind	cloud	Planet1A.png	Ship1A.png	blank.png	blank.png		0
6.6.1	mac	0	2024-01-24	17:01:21	1	1	1	experiment	2	getValueVector	2970		0		1	1	1	1	1	no erasure	no erasure		1		0	0	316	21	21121	5173		0			0	0	2		0			0				0.6999999999999999556				0		nan	0											17:01:26	17:01:29					0	wind	cloud	Planet1A.png	Ship1A.png	blank.png	blank.png		0
6.6.1	mac	0	2024-01-24	17:01:21	1	1	1	experiment	2	getValueVector	2970		0		1	1	1	1	1	no erasure	no erasure		1		0	0	317	21	21121	5173		0			0	0	2		0			0				0.6999999999999999556				0		nan	0											17:01:26	17:01:29					0	wind	cloud	Planet1A.png	Ship1A.png	blank.png	blank.png		0
6.6.1	mac	0	2024-01-24	17:01:21	1	1	1	experiment	2	getValueVector	2970		0		1	1	1	1	1	no erasure	no erasure		1		0	0	318	22	21121	5173		0			0	0	2		0			0				0.6999999999999999556				0		nan	0											17:01:26	17:01:29					0	wind	cloud	Planet1A.png	Ship1A.png	blank.png	blank.png		0
6.6.1	mac	0	2024-01-24	17:01:21	1	1	1	experiment	2	getValueVector	2970		0		1	1	1	1	1	no erasure	no erasure		1		0	0	319	23	21121	5173		0			0	0	2		0			0				0.6999999999999999556				0		nan	0											17:01:26	17:01:29					0	wind	cloud	Planet1A.png	Ship1A.png	blank.png	blank.png		0
6.6.1	mac	0	2024-01-24	17:01:21	1	1	1	experiment	2	getValueVector	2970		0		1	1	1	1	1	no erasure	no erasure		1		0	0	320	23	21121	5173		0			0	0	2		0			0				0.6999999999999999556				0		nan	0											17:01:26	17:01:29					0	wind	cloud	Planet1A.png	Ship1A.png	blank.png	blank.png		0
6.6.1	mac	0	2024-01-24	17:01:21	1	1	1	experiment	2	getValueVector	2970		0		1	1	1	1	1	no erasure	no erasure		1		0	0	321	24	21121	5173		0			0	0	2		0			0				0.6999999999999999556				0		nan	0											17:01:26	17:01:29					0	wind	cloud	Planet1A.png	Ship1A.png	blank.png	blank.png		0
6.6.1	mac	0	2024-01-24	17:01:21	1	1	1	experiment	2	getValueVector	2970		0		1	1	1	1	1	no erasure	no erasure		1		0	0	322	25	21121	5173		0			0	0	2		0			0				0.6999999999999999556				0		nan	0											17:01:26	17:01:29					0	wind	cloud	Planet1A.png	Ship1A.png	blank.png	blank.png		0
6.6.1	mac	0	2024-01-24	17:01:21	1	1	1	experiment	2	getValueVector	2970		0		1	1	1	1	1	no erasure	no erasure		1		0	0	323	26	21121	5173		0			0	0	2		0			0				0.6999999999999999556				0		nan	0											17:01:26	17:01:29					0	wind	cloud	Planet1A.png	Ship1A.png	blank.png	blank.png		0
6.6.1	mac	0	2024-01-24	17:01:21	1	1	1	experiment	2	getValueVector	2970		0		1	1	1	1	1	no erasure	no erasure		1		0	0	324	27	21121	5173		0			0	0	2		0			0				0.6999999999999999556				0		nan	0											17:01:26	17:01:29					0	wind	cloud	Planet1A.png	Ship1A.png	blank.png	blank.png		0
6.6.1	mac	0	2024-01-24	17:01:21	1	1	1	experiment	2	getValueVector	2970		0		1	1	1	1	1	no erasure	no erasure		1		0	0	325	28	21121	5173		0			0	0	2		0			0				0.6999999999999999556				0		nan	0											17:01:26	17:01:29					0	wind	cloud	Planet1A.png	Ship1A.png	blank.png	blank.png		0
6.6.1	mac	0	2024-01-24	17:01:21	1	1	1	experiment	2	getValueVector	2970		0		1	1	1	1	1	no erasure	no erasure		1		0	0	326	28	21121	5173		0			0	0	2		0			0				0.6999999999999999556				0		nan	0											17:01:26	17:01:29					0	wind	cloud	Planet1A.png	Ship1A.png	blank.png	blank.png		0
6.6.1	mac	0	2024-01-24	17:01:21	1	1	1	experiment	2	getValueVector	2970		0		1	1	1	1	1	no erasure	no erasure		1		0	0	327	29	21121	5173		0			0	0	2		0			0				0.6999999999999999556				0		nan	0											17:01:26	17:01:29					0	wind	cloud	Planet1A.png	Ship1A.png	blank.png	blank.png		0
6.6.1	mac	0	2024-01-24	17:01:21	1	1	1	experiment	2	getValueVector	2970		0		1	1	1	1	1	no erasure	no erasure		1		0	0	328	31	21121	5173		0			0	0	2		0			0				0.6999999999999999556				0		nan	0											17:01:26	17:01:29					0	wind	cloud	Planet1A.png	Ship1A.png	blank.png	blank.png		0
6.6.1	mac	0	2024-01-24	17:01:21	1	1	1	experiment	2	getValueVector	2970		0		1	1	1	1	1	no erasure	no erasure		1		0	0	329	32	21121	5173		0			0	0	2		0			0				0.6999999999999999556				0		nan	0											17:01:26	17:01:29					0	wind	cloud	Planet1A.png	Ship1A.png	blank.png	blank.png		0
6.6.1	mac	0	2024-01-24	17:01:21	1	1	1	experiment	2	getValueVector	2970		0		1	1	1	1	1	no erasure	no erasure		1		0	0	330	33	21121	5173		0			0	0	2		0			0				0.6999999999999999556				0		nan	0											17:01:26	17:01:29					0	wind	cloud	Planet1A.png	Ship1A.png	blank.png	blank.png		0
6.6.1	mac	0	2024-01-24	17:01:21	1	1	1	experiment	2	getValueVector	2970		0		1	1	1	1	1	no erasure	no erasure		1		0	0	331	34	21121	5173		0			0	0	2		0			0				0.6999999999999999556				0		nan	0											17:01:26	17:01:29					0	wind	cloud	Planet1A.png	Ship1A.png	blank.png	blank.png		0
6.6.1	mac	0	2024-01-24	17:01:21	1	1	1	experiment	2	getValueVector	2970		0		1	1	1	1	1	no erasure	no erasure		1		0	0	332	35	21121	5173		0			0	0	2		0			0				0.6999999999999999556				0		nan	0											17:01:26	17:01:29					0	wind	cloud	Planet1A.png	Ship1A.png	blank.png	blank.png		0
6.6.1	mac	0	2024-01-24	17:01:21	1	1	1	experiment	2	getValueVector	2970		0		1	1	1	1	1	no erasure	no erasure		1		0	0	333	36	21121	5173		0			0	0	2		0			0				0.6999999999999999556				0		nan	0											17:01:26	17:01:29					0	wind	cloud	Planet1A.png	Ship1A.png	blank.png	blank.png		0
6.6.1	mac	0	2024-01-24	17:01:21	1	1	1	experiment	2	getValueVector	2970		0		1	1	1	1	1	no erasure	no erasure		1		0	0	334	38	21121	5173		0			0	0	2		0			0				0.6999999999999999556				0		nan	0											17:01:26	17:01:29					0	wind	cloud	Planet1A.png	Ship1A.png	blank.png	blank.png		0
6.6.1	mac	0	2024-01-24	17:01:21	1	1	1	experiment	2	getValueVector	2970		0		1	1	1	1	1	no erasure	no erasure		1		0	0	335	39	21121	5173		0			0	0	2		0			0				0.6999999999999999556				0		nan	0											17:01:26	17:01:29					0	wind	cloud	Planet1A.png	Ship1A.png	blank.png	blank.png		0
6.6.1	mac	0	2024-01-24	17:01:21	1	1	1	experiment	2	getValueVector	2970		0		1	1	1	1	1	no erasure	no erasure		1		0	0	336	40	21121	5173		0			0	0	2		0			0				0.6999999999999999556				0		nan	0											17:01:26	17:01:29					0	wind	cloud	Planet1A.png	Ship1A.png	blank.png	blank.png		0
6.6.1	mac	0	2024-01-24	17:01:21	1	1	1	experiment	2	getValueVector	2970		0		1	1	1	1	1	no erasure	no erasure		1		0	0	337	42	21121	5173		0			0	0	2		0			0				0.6999999999999999556				0		nan	0											17:01:26	17:01:29					0	wind	cloud	Planet1A.png	Ship1A.png	blank.png	blank.png		0
6.6.1	mac	0	2024-01-24	17:01:21	1	1	1	experiment	2	getValueVector	2970		0		1	1	1	1	1	no erasure	no erasure		1		0	0	338	43	21121	5173		0			0	0	2		0			0				0.6999999999999999556				0		nan	0											17:01:26	17:01:29					0	wind	cloud	Planet1A.png	Ship1A.png	blank.png	blank.png		0
6.6.1	mac	0	2024-01-24	17:01:21	1	1	1	experiment	2	getValueVector	2970		0		1	1	1	1	1	no erasure	no erasure		1		0	0	339	45	21121	5173		0			0	0	2		0			0				0.6999999999999999556				0		nan	0											17:01:26	17:01:29					0	wind	cloud	Planet1A.png	Ship1A.png	blank.png	blank.png		0
6.6.1	mac	0	2024-01-24	17:01:21	1	1	1	experiment	2	getValueVector	2970		0		1	1	1	1	1	no erasure	no erasure		1		0	0	340	46	21121	5173		0			0	0	2		0			0				0.6999999999999999556				0		nan	0											17:01:26	17:01:29					0	wind	cloud	Planet1A.png	Ship1A.png	blank.png	blank.png		0
6.6.1	mac	0	2024-01-24	17:01:21	1	1	1	experiment	2	getValueVector	2970		0		1	1	1	1	1	no erasure	no erasure		1		0	0	341	48	21121	5173		0			0	0	2		0			0				0.6999999999999999556				0		nan	0											17:01:26	17:01:29					0	wind	cloud	Planet1A.png	Ship1A.png	blank.png	blank.png		0
6.6.1	mac	0	2024-01-24	17:01:21	1	1	1	experiment	2	getValueVector	2970		0		1	1	1	1	1	no erasure	no erasure		1		0	0	342	49	21121	5173		0			0	0	2		0			0				0.6999999999999999556				0		nan	0											17:01:26	17:01:29					0	wind	cloud	Planet1A.png	Ship1A.png	blank.png	blank.png		0
6.6.1	mac	0	2024-01-24	17:01:21	1	1	1	experiment	2	getValueVector	2970		0		1	1	1	1	1	no erasure	no erasure		1		0	0	343	51	21121	5173		0			0	0	2		0			0				0.6999999999999999556				0		nan	0											17:01:26	17:01:29					0	wind	cloud	Planet1A.png	Ship1A.png	blank.png	blank.png		0
6.6.1	mac	0	2024-01-24	17:01:21	1	1	1	experiment	2	getValueVector	2970		0		1	1	1	1	1	no erasure	no erasure		1		0	0	344	53	21121	5173		0			0	0	2		0			0				0.6999999999999999556				0		nan	0											17:01:26	17:01:29					0	wind	cloud	Planet1A.png	Ship1A.png	blank.png	blank.png		0
6.6.1	mac	0	2024-01-24	17:01:21	1	1	1	experiment	2	getValueVector	2970		0		1	1	1	1	1	no erasure	no erasure		1		0	0	345	55	21121	5173		0			0	0	2		0			0				0.6999999999999999556				0		nan	0											17:01:26	17:01:29					0	wind	cloud	Planet1A.png	Ship1A.png	blank.png	blank.png		0
6.6.1	mac	0	2024-01-24	17:01:21	1	1	1	experiment	2	getValueVector	2970		0		1	1	1	1	1	no erasure	no erasure		1		0	0	346	57	21121	5173		0			0	0	2		0			0				0.6999999999999999556				0		nan	0											17:01:26	17:01:29					0	wind	cloud	Planet1A.png	Ship1A.png	blank.png	blank.png		0
6.6.1	mac	0	2024-01-24	17:01:21	1	1	1	experiment	2	getValueVector	2970		0		1	1	1	1	1	no erasure	no erasure		1		0	0	347	58	21121	5173		0			0	0	2		0			0				0.6999999999999999556				0		nan	0											17:01:26	17:01:29					0	wind	cloud	Planet1A.png	Ship1A.png	blank.png	blank.png		0
6.6.1	mac	0	2024-01-24	17:01:21	1	1	1	experiment	2	getValueVector	2970		0		1	1	1	1	1	no erasure	no erasure		1		0	0	348	60	21121	5173		0			0	0	2		0			0				0.6999999999999999556				0		nan	0											17:01:26	17:01:29					0	wind	cloud	Planet1A.png	Ship1A.png	blank.png	blank.png		0
6.6.1	mac	0	2024-01-24	17:01:21	1	1	1	experiment	2	getValueVector	2970		0		1	1	1	1	1	no erasure	no erasure		1		0	0	349	62	21121	5173		0			0	0	2		0			0				0.6999999999999999556				0		nan	0											17:01:26	17:01:29					0	wind	cloud	Planet1A.png	Ship1A.png	blank.png	blank.png		0
6.6.1	mac	0	2024-01-24	17:01:21	1	1	1	experiment	2	getValueVector	2970		0		1	1	1	1	1	no erasure	no erasure		1		0	0	350	64	21121	5173		0			0	0	2		0			0				0.6999999999999999556				0		nan	0											17:01:26	17:01:29					0	wind	cloud	Planet1A.png	Ship1A.png	blank.png	blank.png		0
6.6.1	mac	0	2024-01-24	17:01:21	1	1	1	experiment	2	getValueVector	2970		0		1	1	1	1	1	no erasure	no erasure		1		0	0	351	67	21121	5173		0			0	0	2		0			0				0.6999999999999999556				0		nan	0											17:01:26	17:01:29					0	wind	cloud	Planet1A.png	Ship1A.png	blank.png	blank.png		0
6.6.1	mac	0	2024-01-24	17:01:21	1	1	1	experiment	2	getValueVector	2970		0		1	1	1	1	1	no erasure	no erasure		1		0	0	352	69	21121	5173		0			0	0	2		0			0				0.6999999999999999556				0		nan	0											17:01:26	17:01:29					0	wind	cloud	Planet1A.png	Ship1A.png	blank.png	blank.png		0
