build	computer.platform	computer.touch	date	time	subject	group	sessionid	blockcode	blocknum	trialcode	latency	randStart	startPos	scrfunc	rtvspos	randStart	circleproportion	mag	freq	ev	inc	rng	startPos	n_revolutions	totalPoints	totalEarnings	Earnings
6.6.1	mac	0	2023-01-18	11:01:54	1	1	1	experiment	1	experiment	4278	1	75	IEV	POS	1	0.3300000000000000155						75	5377	0	0	
6.6.1	mac	0	2023-01-18	11:01:54	1	1	1	experiment	1	dispFeedback	1000	1	75	IEV	POS	1	0.3300000000000000155	189	0.9986052706184492811	188.4080494126662017607	189	0.7759644775129771466	75	5377	189	0	
6.6.1	mac	0	2023-01-18	11:01:54	1	1	1	experiment	1	experiment	2026	1	55	IEV	POS	1	0.3300000000000000155						55	9425	189	0	
6.6.1	mac	0	2023-01-18	11:01:54	1	1	1	experiment	1	dispFeedback	1000	1	55	IEV	POS	1	0.3300000000000000155	36	1.035207576779463956	36.9640205514050990132	36	0.8588868216282889989	55	9425	225	5	5
6.6.1	mac	0	2023-01-18	11:01:54	1	1	1	experiment	1	experiment	2358	1	40	IEV	POS	1	0.3300000000000000155						40	13823	225	5	5
6.6.1	mac	0	2023-01-18	11:01:54	1	1	1	experiment	1	dispFeedback	1000	1	40	IEV	POS	1	0.3300000000000000155	28	0.9838785259858709997	28.0347486864071129276	28	0.3910088703015374145	40	13823	253	9	4
6.6.1	mac	0	2023-01-18	11:01:54	1	1	1	experiment	1	experiment	1272	1	79	IEV	POS	1	0.3300000000000000155						79	17118	253	9	4
6.6.1	mac	0	2023-01-18	11:01:54	1	1	1	experiment	1	dispFeedback	1000	1	79	IEV	POS	1	0.3300000000000000155	44	1.0796740814325431757	47.2681316035858074542	44	0.576177269121673219	79	17118	297	14	5
6.6.1	mac	0	2023-01-18	11:01:54	1	1	1	experiment	2	experiment	1106	1	48	DEV	POS	1	0.3300000000000000155						48	20254	297	14	5
6.6.1	mac	0	2023-01-18	11:01:54	1	1	1	experiment	2	dispFeedback	1000	1	48	DEV	POS	1	0.3300000000000000155	62	0.2121505703070385718	13.0495520108386813263	0	0.9527880747226969982	48	20254	297	14	0
6.6.1	mac	0	2023-01-18	11:01:54	1	1	1	experiment	2	experiment	6517	1	72	DEV	POS	1	0.3300000000000000155						72	28797	297	14	0
6.6.1	mac	0	2023-01-18	11:01:54	1	1	1	experiment	2	dispFeedback	1000	1	72	DEV	POS	1	0.3300000000000000155	66	0.5713238707503554004	37.4278857461353311464	0	0.826523090905166069	72	28797	297	14	0
6.6.1	mac	0	2023-01-18	11:01:54	1	1	1	experiment	2	experiment	1966	1	5	DEV	POS	1	0.3300000000000000155						5	32795	297	14	0
6.6.1	mac	0	2023-01-18	11:01:54	1	1	1	experiment	2	dispFeedback	1000	1	5	DEV	POS	1	0.3300000000000000155	62	0.3217209232008442221	19.7893124407272225085	62	0.2989896876502292633	5	32795	359	21	7
6.6.1	mac	0	2023-01-18	11:01:54	1	1	1	experiment	2	experiment	2173	1	13	DEV	POS	1	0.3300000000000000155						13	37003	359	21	7
6.6.1	mac	0	2023-01-18	11:01:54	1	1	1	experiment	2	dispFeedback	1000	1	13	DEV	POS	1	0.3300000000000000155	69	0.2743924327760064452	18.7988460027641721695	69	0.260112139224100869	13	37003	428	28	7
6.6.1	mac	0	2023-01-18	11:01:54	1	1	1	experiment	2	experiment	725	1	70	DEV	POS	1	0.3300000000000000155						70	39754	428	28	7
6.6.1	mac	0	2023-01-18	11:01:54	1	1	1	experiment	2	dispFeedback	1000	1	70	DEV	POS	1	0.3300000000000000155	65	0.7709719680543510867	49.7360210198513641444	65	0.1348619826917680786	70	39754	493	35	7
6.6.1	mac	0	2023-01-18	11:01:54	1	1	1	endscreen	3	endscreen	5000	1	70	DEV	POS	1	0.3300000000000000155						70	39754	493	35	
