build	computer.platform	computer.touch	date	time	subject	group	sessionid	blockcode	blocknum	trialcode	latency	randStart	startPos	scrfunc	rtvspos	randStart	circleproportion	mag	freq	ev	inc	rng	startPos	n_revolutions	totalPoints
6.6.1	mac	0	2023-01-13	14:07:51	1	1	1	instructions	1	instructions1	555	1	75	DEV	POS	1	0.3300000000000000155						75	0	0
6.6.1	mac	0	2023-01-13	14:07:51	1	1	1	instructions	1	instructions2	192	1	75	DEV	POS	1	0.3300000000000000155						75	0	0
6.6.1	mac	0	2023-01-13	14:07:51	1	1	1	instructions	1	instructions3	187	1	75	DEV	POS	1	0.3300000000000000155						75	0	0
6.6.1	mac	0	2023-01-13	14:07:51	1	1	1	experiment	2	experiment	1879	1	45	DEV	POS	1	0.3300000000000000155						45	3971	0
6.6.1	mac	0	2023-01-13	14:07:51	1	1	1	experiment	2	dispFeedback	1000	1	45	DEV	POS	1	0.3300000000000000155	66	0.7959751589674372019	52.1449721109462558388	66	0.3721881831000065644	45	3971	66
6.6.1	mac	0	2023-01-13	14:07:51	1	1	1	experiment	2	experiment	364	1	98	DEV	POS	1	0.3300000000000000155						98	6387	66
6.6.1	mac	0	2023-01-13	14:07:51	1	1	1	experiment	2	dispFeedback	1000	1	98	DEV	POS	1	0.3300000000000000155	67	0.5445517539565634113	36.2185746215389343661	67	0.5274812417401655296	98	6387	133
6.6.1	mac	0	2023-01-13	14:07:51	1	1	1	experiment	2	experiment	636	1	60	DEV	POS	1	0.3300000000000000155						60	9058	133
6.6.1	mac	0	2023-01-13	14:07:51	1	1	1	experiment	2	dispFeedback	1000	1	60	DEV	POS	1	0.3300000000000000155	67	0.1983858625275983778	13.1948030900793380482	0	0.8372289358724906982	60	9058	133
6.6.1	mac	0	2023-01-13	14:07:51	1	1	1	experiment	2	experiment	656	1	3	DEV	POS	1	0.3300000000000000155						3	11761	133
6.6.1	mac	0	2023-01-13	14:07:51	1	1	1	experiment	2	dispFeedback	1000	1	3	DEV	POS	1	0.3300000000000000155	68	0.460574244655185927	31.0937372591909557684	68	0.4205337391282742976	3	11761	201
6.6.1	mac	0	2023-01-13	14:07:51	1	1	1	experiment	2	experiment	387	1	51	DEV	POS	1	0.3300000000000000155						51	14193	201
6.6.1	mac	0	2023-01-13	14:07:51	1	1	1	experiment	2	dispFeedback	1000	1	51	DEV	POS	1	0.3300000000000000155	70	0.2649630067379040166	18.4177914564981755063	0	0.395742729631192669	51	14193	201
6.6.1	mac	0	2023-01-13	14:07:51	1	1	1	experiment	3	experiment	2770	1	28	DEV	POS	1	0.3300000000000000155						28	19008	201
6.6.1	mac	0	2023-01-13	14:07:51	1	1	1	experiment	3	dispFeedback	1000	1	28	DEV	POS	1	0.3300000000000000155	70	0.7852232836791216419	54.5815012580015093135	70	0.1655921047007646585	28	19008	271
6.6.1	mac	0	2023-01-13	14:07:51	1	1	1	experiment	3	experiment	625	1	79	DEV	POS	1	0.3300000000000000155						79	21663	271
6.6.1	mac	0	2023-01-13	14:07:51	1	1	1	experiment	3	dispFeedback	1000	1	79	DEV	POS	1	0.3300000000000000155	66	0.685262992511877389	44.8921291457755557985	66	0.5146070892258097773	79	21663	337
6.6.1	mac	0	2023-01-13	14:07:51	1	1	1	experiment	3	experiment	535	1	10	DEV	POS	1	0.3300000000000000155						10	24223	337
6.6.1	mac	0	2023-01-13	14:07:51	1	1	1	experiment	3	dispFeedback	1000	1	10	DEV	POS	1	0.3300000000000000155	62	0.4314849637799039739	26.5409867557348313483	0	0.7975792742328670082	10	24223	337
6.6.1	mac	0	2023-01-13	14:07:51	1	1	1	experiment	3	experiment	0	1	47	DEV	POS	1	0.3300000000000000155						47	25653	337
