build	computer.platform	computer.touch	date	time	subject	group	sessionid	blockcode	blocknum	trialcode	latency	randStart	startPos	scrfunc	rtvspos	randStart	circleproportion	mag	freq	ev	inc	rng	startPos	n_revolutions	totalPoints
6.6.1	mac	0	2023-01-13	13:53:22	1	1	1	instructions	1	instructions1	446	1	75	DEV	POS	1	0.3300000000000000155						75	0	0
6.6.1	mac	0	2023-01-13	13:53:22	1	1	1	instructions	1	instructions2	191	1	75	DEV	POS	1	0.3300000000000000155						75	0	0
6.6.1	mac	0	2023-01-13	13:53:22	1	1	1	instructions	1	instructions3	180	1	75	DEV	POS	1	0.3300000000000000155						75	0	0
6.6.1	mac	0	2023-01-13	13:53:22	1	1	1	experiment	2	experiment	1781	1	48	DEV	POS	1	0.3300000000000000155						48	3776	0
6.6.1	mac	0	2023-01-13	13:53:22	1	1	1	experiment	2	dispFeedback	1000	1	48	DEV	POS	1	0.3300000000000000155	64	0.782357096617033454	49.6881277130609433357	64	0.0874655044375605706	48	3776	64
6.6.1	mac	0	2023-01-13	13:53:22	1	1	1	experiment	2	experiment	864	1	22	DEV	POS	1	0.3300000000000000155						22	6655	64
6.6.1	mac	0	2023-01-13	13:53:22	1	1	1	experiment	2	dispFeedback	1000	1	22	DEV	POS	1	0.3300000000000000155	62	0.3415489195708077963	21.0089484262731716058	0	0.588698997532180246	22	6655	64
6.6.1	mac	0	2023-01-13	13:53:22	1	1	1	experiment	2	experiment	475	1	99	DEV	POS	1	0.3300000000000000155						99	9151	64
6.6.1	mac	0	2023-01-13	13:53:22	1	1	1	experiment	2	dispFeedback	1000	1	99	DEV	POS	1	0.3300000000000000155	65	0.5172349730615487529	33.3672436331406245813	65	0.1590137917452989491	99	9151	129
6.6.1	mac	0	2023-01-13	13:53:22	1	1	1	experiment	2	experiment	360	1	4	DEV	POS	1	0.3300000000000000155						4	11534	129
6.6.1	mac	0	2023-01-13	13:53:22	1	1	1	experiment	2	dispFeedback	1000	1	4	DEV	POS	1	0.3300000000000000155	64	0.4959069619217995051	31.4954495387265929196	0	0.5688714593576433831	4	11534	129
6.6.1	mac	0	2023-01-13	13:53:22	1	1	1	experiment	2	experiment	280	1	85	DEV	POS	1	0.3300000000000000155						85	13838	129
6.6.1	mac	0	2023-01-13	13:53:22	1	1	1	experiment	2	dispFeedback	1000	1	85	DEV	POS	1	0.3300000000000000155	62	0.6957755105159773024	42.7977106033961334219	62	0.5590188695488076398	85	13838	191
6.6.1	mac	0	2023-01-13	13:53:22	1	1	1	experiment	3	experiment	250	1	79	DEV	POS	1	0.3300000000000000155						79	16125	191
6.6.1	mac	0	2023-01-13	13:53:22	1	1	1	experiment	3	dispFeedback	1000	1	79	DEV	POS	1	0.3300000000000000155	70	0.7774250724882324493	54.0394413334264598348	70	0.5883075938532844606	79	16125	261
6.6.1	mac	0	2023-01-13	13:53:22	1	1	1	experiment	3	experiment	1343	1	34	DEV	POS	1	0.3300000000000000155						34	19501	261
6.6.1	mac	0	2023-01-13	13:53:22	1	1	1	experiment	3	dispFeedback	1000	1	34	DEV	POS	1	0.3300000000000000155	70	0.2559100757475286092	17.7885149506811437448	0	0.4862725698589981937	34	19501	261
6.6.1	mac	0	2023-01-13	13:53:22	1	1	1	experiment	3	experiment	1096	1	61	DEV	POS	1	0.3300000000000000155						61	22620	261
6.6.1	mac	0	2023-01-13	13:53:22	1	1	1	experiment	3	dispFeedback	1000	1	61	DEV	POS	1	0.3300000000000000155	64	0.7915039901413289947	50.2690542689498300888	0	0.9496523504959540896	61	22620	261
6.6.1	mac	0	2023-01-13	13:53:22	1	1	1	experiment	3	experiment	1579	1	54	DEV	POS	1	0.3300000000000000155						54	26220	261
6.6.1	mac	0	2023-01-13	13:53:22	1	1	1	experiment	3	dispFeedback	1000	1	54	DEV	POS	1	0.3300000000000000155	68	0.7571770134471442759	51.1176284562991085636	68	0.075872379139967347	54	26220	329
6.6.1	mac	0	2023-01-13	13:53:22	1	1	1	experiment	3	experiment	1115	1	85	DEV	POS	1	0.3300000000000000155						85	29356	329
6.6.1	mac	0	2023-01-13	13:53:22	1	1	1	experiment	3	dispFeedback	1000	1	85	DEV	POS	1	0.3300000000000000155	69	0.5271728651702272117	36.1170364973623208016	0	0.8929518316623177299	85	29356	329
6.6.1	mac	0	2023-01-13	13:53:22	1	1	1	endscreen	4	endscreen	3000	1	85	DEV	POS	1	0.3300000000000000155						85	29356	329
