build	computer.platform	computer.touch	date	time	subject	group	sessionid	blockcode	blocknum	trialcode	latency	preClockFreezeBlock	list.preClockFreeze.currentvalue	list.ITI.currentvalue	list.ISI.currentvalue	trial.instructions5_1.response	trial.instructions5_2.response	startPos	scrfunc	rtvspos	randStart	mag	freq	ev	inc	rng	fogPos1	fogPos_out	windPos2	windPos_out	chooseFog1	chooseWind2	choose_unc_att1	choose_unc_att_out1	choose_unc_att2	choose_unc_att_out2	unc_att_count1	unc_att_count_out1	unc_att_count2	unc_att_count_out2	chooseAttentionalControl	chooseUncertainty	blockCount	ntrials	trialCount	meta_trialCount	attentional_control	local_uncertainty	unc_att_start1	unc_att_start2	unc_att_block	list.rt_0.currentindex	rt_shifted	pos_shifted	totalPoints	totalEarnings	Earnings
6.6.1	mac	0	2023-06-29	20:07:23	1	1	1	experiment	1	experiment_noU	504	2	750	240	500			15	dynamic	POS	1						30		10		0	0	0	0	0	0	0	0	0	0	0	0	1	2	1	1	wind	cloud	9	27	0	0			0	0	
6.6.1	mac	0	2023-06-29	20:07:23	1	1	1	experiment	1	dispFeedback_noU	1000	2	750	240	500			15	dynamic	POS	1	13.7799999999999993605	0.6999999999999999556	9.6459999999999990195	13.7799999999999993605	0.2608171059425959948	30		10		0	0	0	0	0	0	0	0	0	0	0	0	1	2	1	1	wind	cloud	9	27	0	1	2504	180.2880000000000109139	13.7799999999999993605	0.5	0.5
6.6.1	mac	0	2023-06-29	20:07:23	1	1	1	experiment	1	experiment_noU	1227	2	750	110	370			18	dynamic	POS	1						30		10		0	0	0	0	0	0	0	0	0	0	0	0	1	2	2	2	wind	cloud	9	27	0	1	2504	180.2880000000000109139	13.7799999999999993605	0.5	0.5
6.6.1	mac	0	2023-06-29	20:07:23	1	1	1	experiment	1	dispFeedback_noU	1000	2	750	110	370			18	dynamic	POS	1	29.3299999999999982947	0.6999999999999999556	20.5309999999999988063	1	0.9575590018549838822	30		10		0	0	0	0	0	0	0	0	0	0	0	0	1	2	2	2	wind	cloud	9	27	0	2	3377	243.144000000000005457	14.7799999999999993605	1	0.5
6.6.1	mac	0	2023-06-29	20:07:23	1	1	1	dumITI	2	experiment_noU	610	2	750	430	360			35	dynamic	POS	1						30		10		0	0	0	0	0	0	0	0	0	0	0	0	1	2	3	3	wind	cloud	9	27	0	2	3377	243.144000000000005457	14.7799999999999993605	1	0.5
6.6.1	mac	0	2023-06-29	20:07:23	1	1	1	dumITI	2	dispFeedback_noU	1000	2	750	430	360			35	dynamic	POS	1	31.9699999999999988631	0.6999999999999999556	22.3789999999999977831	31.9699999999999988631	0.3163806226375467934	30		10		0	0	0	0	0	0	0	0	0	0	0	0	1	2	3	3	wind	cloud	9	27	0	3	3610	259.9200000000000159162	46.75	2	1
6.6.1	mac	0	2023-06-29	20:07:23	1	1	1	dumITI	2	experiment_noU	369	2	750	140	310			23	dynamic	POS	1						30		10		0	0	0	0	0	0	0	0	0	0	0	0	1	2	4	4	wind	cloud	9	27	0	3	3610	259.9200000000000159162	46.75	2	1
6.6.1	mac	0	2023-06-29	20:07:23	1	1	1	dumITI	2	dispFeedback_noU	1000	2	750	140	310			23	dynamic	POS	1	11.7100000000000008527	0.6999999999999999556	8.1970000000000009521	11.7100000000000008527	0.2603132352839022112	30		10		0	0	0	0	0	0	0	0	0	0	0	0	1	2	4	4	wind	cloud	9	27	0	4	2769	199.3679999999999949978	58.4600000000000008527	2.5	0.5
6.6.1	mac	0	2023-06-29	20:07:23	1	1	1	dumITI	2	experiment_noU	520	2	750	120	340			7	dynamic	POS	1						30		10		0	0	0	0	0	0	0	0	0	0	0	0	1	2	5	5	wind	cloud	9	27	0	4	2769	199.3679999999999949978	58.4600000000000008527	2.5	0.5
6.6.1	mac	0	2023-06-29	20:07:23	1	1	1	dumITI	2	dispFeedback_noU	1000	2	750	120	340			7	dynamic	POS	1	11.5500000000000007105	0.6999999999999999556	8.0850000000000008527	11.5500000000000007105	0.0123821792687247925	30		10		0	0	0	0	0	0	0	0	0	0	0	0	1	2	5	5	wind	cloud	9	27	0	5	2120	152.6399999999999863576	70.0100000000000051159	3	0.5
6.6.1	mac	0	2023-06-29	20:07:23	1	1	1	dumITI	2	experiment_noU	755	2	750	160	410			74	dynamic	POS	1						30		10		0	0	0	0	0	0	0	0	0	0	0	0	1	2	6	6	wind	cloud	9	27	0	5	2120	152.6399999999999863576	70.0100000000000051159	3	0.5
6.6.1	mac	0	2023-06-29	20:07:23	1	1	1	dumITI	2	dispFeedback_noU	1000	2	750	160	410			74	dynamic	POS	1	18.1700000000000017053	0.6999999999999999556	12.7190000000000011937	18.1700000000000017053	0.5234821486574323668	30		10		0	0	0	0	0	0	0	0	0	0	0	0	1	2	6	6	wind	cloud	9	27	0	6	705	50.7599999999999980105	88.1800000000000068212	3.5	0.5
6.6.1	mac	0	2023-06-29	20:07:23	1	1	1	dumITI	2	experiment_noU	699	2	750	100	600			2	dynamic	POS	1						30		10		0	0	0	0	0	0	0	0	0	0	0	0	1	2	7	7	wind	cloud	9	27	0	6	705	50.7599999999999980105	88.1800000000000068212	3.5	0.5
6.6.1	mac	0	2023-06-29	20:07:23	1	1	1	dumITI	2	dispFeedback_noU	1000	2	750	100	600			2	dynamic	POS	1	4.2099999999999999645	0.6999999999999999556	2.9469999999999996199	4.2099999999999999645	0.0908873430664854515	30		10		0	0	0	0	0	0	0	0	0	0	0	0	1	2	7	7	wind	cloud	9	27	0	7	2049	147.5279999999999915872	92.3900000000000005684	4	0.5
6.6.1	mac	0	2023-06-29	20:07:23	1	1	1	dumITI	2	experiment_noU	911	2	750	310	380			2	dynamic	POS	1						30		10		0	0	0	0	0	0	0	0	0	0	0	0	1	2	8	8	wind	cloud	9	27	0	7	2049	147.5279999999999915872	92.3900000000000005684	4	0.5
6.6.1	mac	0	2023-06-29	20:07:23	1	1	1	dumITI	2	dispFeedback_noU	1000	2	750	310	380			2	dynamic	POS	1	9.1299999999999990052	0.6999999999999999556	6.390999999999999126	1	0.7715429332506710258	30		10		0	0	0	0	0	0	0	0	0	0	0	0	1	2	8	8	wind	cloud	9	27	0	8	2261	162.7920000000000015916	93.3900000000000005684	4.5	0.5
6.6.1	mac	0	2023-06-29	20:07:23	1	1	1	dumITI	2	experiment_U	1761	2	750	180	580			81	dynamic	POS	1						30	150	10		0	0	0	0	0	0	0	1	0	0	0	0	1	2	9	9	wind	cloud	9	27	1	8	2261	162.7920000000000015916	93.3900000000000005684	4.5	0.5
6.6.1	mac	0	2023-06-29	20:07:23	1	1	1	dumITI	2	dispFeedback_U	1000	2	750	180	580			81	dynamic	POS	1	10.1500000000000003553	0.6999999999999999556	7.1049999999999995381	10.1500000000000003553	0.332546629554719364	30	150	10		1	0	1	1	0	0	1	1	0	0	0	1	1	2	9	9	wind	cloud	9	27	1	9	2061	148.3919999999999959073	103.5400000000000062528	5	0.5
6.6.1	mac	0	2023-06-29	20:07:23	1	1	1	dumITI	2	experiment_U	2825	2	750	320	420			60	dynamic	POS	1						30	150	10		1	0	1	0	0	0	1	2	0	0	0	0	1	2	10	10	wind	cloud	9	27	1	9	2061	148.3919999999999959073	103.5400000000000062528	5	0.5
6.6.1	mac	0	2023-06-29	20:07:23	1	1	1	dumITI	2	dispFeedback_U	1000	2	750	320	420			60	dynamic	POS	1	8.1600000000000001421	0.6999999999999999556	5.7119999999999997442	8.1600000000000001421	0.2211956149482157963	30	150	10		1	0	2	1	0	0	2	2	0	0	0	1	1	2	10	10	wind	cloud	9	27	1	10	2075	149.4000000000000056843	111.7000000000000028422	5.5	0.5
6.6.1	mac	0	2023-06-29	20:07:23	1	1	1	dumITI	2	experiment_noU	556	2	750	300	300			51	dynamic	POS	1						30		10		0	0	2	0	0	0	2	0	0	0	0	0	1	2	11	11	wind	cloud	9	27	0	10	2075	149.4000000000000056843	111.7000000000000028422	5.5	0.5
6.6.1	mac	0	2023-06-29	20:07:23	1	1	1	dumITI	2	dispFeedback_noU	1000	2	750	300	300			51	dynamic	POS	1	163.8499999999999943157	0.6999999999999999556	114.6949999999999931788	163.8499999999999943157	0.2781777624688525075	30		10		0	0	2	0	0	0	2	0	0	0	0	0	1	2	11	11	wind	cloud	9	27	0	11	4356	313.6320000000000050022	275.5500000000000113687	10.5	5
6.6.1	mac	0	2023-06-29	20:07:23	1	1	1	dumITI	2	experiment_noU	784	2	750	280	460			26	dynamic	POS	1						30		10		0	0	2	0	0	0	2	0	0	0	0	0	1	2	12	12	wind	cloud	9	27	0	11	4356	313.6320000000000050022	275.5500000000000113687	10.5	5
6.6.1	mac	0	2023-06-29	20:07:23	1	1	1	dumITI	2	dispFeedback_noU	1000	2	750	280	460			26	dynamic	POS	1	29.1700000000000017053	0.6999999999999999556	20.4190000000000004832	1	0.7893294398182373328	30		10		0	0	2	0	0	0	2	0	0	0	0	0	1	2	12	12	wind	cloud	9	27	0	12	3334	240.048000000000001819	276.5500000000000113687	11	0.5
6.6.1	mac	0	2023-06-29	20:07:23	1	1	1	dumITI	2	experiment_noU	2405	2	750	150	280			66	dynamic	POS	1						30		10		0	0	2	0	0	0	2	0	0	0	0	0	1	2	13	13	wind	cloud	9	27	0	12	3334	240.048000000000001819	276.5500000000000113687	11	0.5
6.6.1	mac	0	2023-06-29	20:07:23	1	1	1	dumITI	2	dispFeedback_noU	1000	2	750	150	280			66	dynamic	POS	1	9.6600000000000001421	0.6999999999999999556	6.7619999999999995666	9.6600000000000001421	0.4244461807944919229	30		10		0	0	2	0	0	0	2	0	0	0	0	0	1	2	13	13	wind	cloud	9	27	0	13	1955	140.7599999999999909051	286.2100000000000363798	11.5	0.5
6.6.1	mac	0	2023-06-29	20:07:23	1	1	1	dumITI	2	experiment_noU	2476	2	750	470	250			65	dynamic	POS	1						30		10		0	0	2	0	0	0	2	0	0	0	0	0	1	2	14	14	wind	cloud	9	27	0	13	1955	140.7599999999999909051	286.2100000000000363798	11.5	0.5
6.6.1	mac	0	2023-06-29	20:07:23	1	1	1	dumITI	2	dispFeedback_noU	1000	2	750	470	250			65	dynamic	POS	1	7.5999999999999996447	0.6999999999999999556	5.319999999999999396	7.5999999999999996447	0.517929685655499239	30		10		0	0	2	0	0	0	2	0	0	0	0	0	1	2	14	14	wind	cloud	9	27	0	14	1976	142.2719999999999913598	293.8100000000000591172	12	0.5
6.6.1	mac	0	2023-06-29	20:07:23	1	1	1	dumITI	2	experiment_noU	701	2	750	340	230			42	dynamic	POS	1						30		10		0	0	2	0	0	0	2	0	0	0	0	0	1	2	15	15	wind	cloud	9	27	0	14	1976	142.2719999999999913598	293.8100000000000591172	12	0.5
6.6.1	mac	0	2023-06-29	20:07:23	1	1	1	dumITI	2	dispFeedback_noU	1000	2	750	340	230			42	dynamic	POS	1	88.0799999999999982947	0.6999999999999999556	61.6559999999999917009	88.0799999999999982947	0.2828118121909936611	30		10		0	0	2	0	0	0	2	0	0	0	0	0	1	2	15	15	wind	cloud	9	27	0	15	4051	291.6720000000000254659	381.890000000000043201	15.5	3.5
6.6.1	mac	0	2023-06-29	20:07:23	1	1	1	dumITI	2	experiment_noU	1001	2	750	380	320			10	dynamic	POS	1						30		10		0	0	2	0	0	0	2	0	0	0	0	0	1	2	16	16	wind	cloud	9	27	0	15	4051	291.6720000000000254659	381.890000000000043201	15.5	3.5
6.6.1	mac	0	2023-06-29	20:07:23	1	1	1	dumITI	2	dispFeedback_noU	1000	2	750	380	320			10	dynamic	POS	1	12.6699999999999999289	0.6999999999999999556	8.8689999999999997726	1	0.9277848838660365249	30		10		0	0	2	0	0	0	2	0	0	0	0	0	1	2	16	16	wind	cloud	9	27	0	16	2751	198.0720000000000027285	382.890000000000043201	16	0.5
6.6.1	mac	0	2023-06-29	20:07:23	1	1	1	dumITI	2	experiment_noU	874	2	750	230	490			76	dynamic	POS	1						30		10		0	0	2	0	0	0	2	0	0	0	0	0	1	2	17	17	wind	cloud	9	27	0	16	2751	198.0720000000000027285	382.890000000000043201	16	0.5
6.6.1	mac	0	2023-06-29	20:07:23	1	1	1	dumITI	2	dispFeedback_noU	1000	2	750	230	490			76	dynamic	POS	1	14.1899999999999995026	0.6999999999999999556	9.9329999999999998295	14.1899999999999995026	0.4267700164175522448	30		10		0	0	2	0	0	0	2	0	0	0	0	0	1	2	17	17	wind	cloud	9	27	0	17	924	66.528000000000005798	397.0800000000000409273	16.5	0.5
6.6.1	mac	0	2023-06-29	20:07:23	1	1	1	dumITI	2	experiment_noU	603	2	750	410	260			87	dynamic	POS	1						30		10		0	0	2	0	0	0	2	0	0	0	0	0	1	2	18	18	wind	cloud	9	27	0	17	924	66.528000000000005798	397.0800000000000409273	16.5	0.5
6.6.1	mac	0	2023-06-29	20:07:23	1	1	1	dumITI	2	dispFeedback_noU	1000	2	750	410	260			87	dynamic	POS	1	7.5599999999999996092	0.6999999999999999556	5.2919999999999998153	7.5599999999999996092	0.5391167373254701634	30		10		0	0	2	0	0	0	2	0	0	0	0	0	1	2	18	18	wind	cloud	9	27	0	18	1203	86.6159999999999996589	404.640000000000043201	17	0.5
6.6.1	mac	0	2023-06-29	20:07:23	1	1	1	dumITI	2	experiment_noU	622	2	750	200	350			20	dynamic	POS	1						30		10		0	0	2	0	0	0	2	0	0	0	0	0	1	2	19	19	wind	cloud	9	27	0	18	1203	86.6159999999999996589	404.640000000000043201	17	0.5
6.6.1	mac	0	2023-06-29	20:07:23	1	1	1	dumITI	2	dispFeedback_noU	1000	2	750	200	350			20	dynamic	POS	1	15.8000000000000007105	0.6999999999999999556	11.0600000000000004974	15.8000000000000007105	0.0000280856620585745	30		10		0	0	2	0	0	0	2	0	0	0	0	0	1	2	19	19	wind	cloud	9	27	0	19	2872	206.7839999999999918145	420.4400000000000545697	17.5	0.5
6.6.1	mac	0	2023-06-29	20:07:23	1	1	1	dumITI	2	experiment_noU	13	2	750	260	570			5	dynamic	POS	1						30		10		0	0	2	0	0	0	2	0	0	0	0	0	1	2	20	20	wind	cloud	9	27	0	19	2872	206.7839999999999918145	420.4400000000000545697	17.5	0.5
