build	computer.platform	computer.touch	date	time	subject	group	sessionid	blockcode	blocknum	trialcode	latency	randStart	startPos	scrfunc	rtvspos	randStart	mag	freq	ev	inc	rng	startPos	fogPos1	fogPos2	chooseUncertainty1	chooseUncertainty2	uncertaintyCount1	uncertaintyCount2	blockCount	ntrials	trialCount	uncertaintyStart1	uncertaintyStart2	uncertainty_block	rt_shifted	totalPoints	totalEarnings	Earnings
6.6.1	mac	0	2023-04-05	13:26:40	1	1	1	instructions	1	instructions1	3797	1	75	IEV	POS	1						75	0	0	0	0	0	0	0	10	0	0	0	0		0	0	
6.6.1	mac	0	2023-04-05	13:26:40	1	1	1	instructions	1	displayGoodJob	762	1	75	IEV	POS	1						75	0	0	0	0	0	0	0	10	0	0	0	0		0	0	
6.6.1	mac	0	2023-04-05	13:26:40	1	1	1	instructions	1	feedback2_5	3000	1	75	IEV	POS	1						75	0	0	0	0	0	0	0	10	0	0	0	0		0	0	0
6.6.1	mac	0	2023-04-05	13:26:40	1	1	1	instructions	1	instructions3	4744	1	75	IEV	POS	1						75	0	0	0	0	0	0	0	10	0	0	0	0		0	0	0
6.6.1	mac	0	2023-04-05	13:26:40	1	1	1	instructions	1	instructions4	3050	1	75	IEV	POS	1						75	0	0	0	0	0	0	0	10	0	0	0	0		0	0	0
6.6.1	mac	0	2023-04-05	13:26:40	1	1	1	instructions	1	sampleResponse	3000	1	75	IEV	POS	1						75	0	0	0	0	0	0	0	10	0	0	0	0	3050	0	0	0
6.6.1	mac	0	2023-04-05	13:26:40	1	1	1	instructions	1	instructions5	701	1	75	IEV	POS	1						75	0	0	0	0	0	0	0	10	0	0	0	0	3050	0	0	0
6.6.1	mac	0	2023-04-05	13:26:40	1	1	1	instructions	1	countdown	1000	1	75	IEV	POS	1						75	0	0	0	0	0	0	0	10	0	0	0	0	3050	0	0	0
6.6.1	mac	0	2023-04-05	13:26:40	1	1	1	experiment	2	experiment_noU	616	1	81	IEV	POS	1						81	35	20	0	0	0	0	1	35	0	12	28	0	3050	0	0	0
6.6.1	mac	0	2023-04-05	13:26:40	1	1	1	experiment	2	dispFeedback_noU	1000	1	81	IEV	POS	1	19	0.8738016035719478047	16.8939955771180265742	19	0.731767985208837346	81	35	20	0	0	0	0	1	35	1	12	28	0	916	19	0.5	0.5
6.6.1	mac	0	2023-04-05	13:26:40	1	1	1	experiment	2	experiment_noU	686	1	21	IEV	POS	1						21	35	20	0	0	0	0	1	35	1	12	28	0	916	19	0.5	0.5
6.6.1	mac	0	2023-04-05	13:26:40	1	1	1	experiment	2	dispFeedback_noU	1000	1	21	IEV	POS	1	71	0.5863102692366213287	41.7356796511337435618	71	0.6373049622954113369	21	35	20	0	0	0	0	1	35	2	12	28	0	2986	90	3	2.5
6.6.1	mac	0	2023-04-05	13:26:40	1	1	1	experiment	2	experiment_noU	721	1	92	IEV	POS	1						92	35	20	0	0	0	0	1	35	2	12	28	0	2986	90	3	2.5
6.6.1	mac	0	2023-04-05	13:26:40	1	1	1	experiment	2	dispFeedback_noU	1000	1	92	IEV	POS	1	33	0.8164998303340018637	27.1544528888356850871	33	0.4712847327979478584	92	35	20	0	0	0	0	1	35	3	12	28	0	1571	123	4.5	1.5
6.6.1	mac	0	2023-04-05	13:26:40	1	1	1	experiment	2	experiment_noU	1538	1	19	IEV	POS	1						19	35	20	0	0	0	0	1	35	3	12	28	0	1571	123	4.5	1.5
6.6.1	mac	0	2023-04-05	13:26:40	1	1	1	experiment	2	dispFeedback_noU	1000	1	19	IEV	POS	1	118	0.4311862553415227728	50.9688893030753931157	118	0.8028923938523261361	19	35	20	0	0	0	0	1	35	4	12	28	0	3738	241	8.5	4
6.6.1	mac	0	2023-04-05	13:26:40	1	1	1	experiment	2	experiment_noU	1298	1	29	IEV	POS	1						29	35	20	0	0	0	0	1	35	4	12	28	0	3738	241	8.5	4
6.6.1	mac	0	2023-04-05	13:26:40	1	1	1	experiment	2	dispFeedback_noU	1000	1	29	IEV	POS	1	135	0.3772650317425343403	51.1091496607130437724	135	0.8324131145683147937	29	35	20	0	0	0	0	1	35	5	12	28	0	3998	376	13	4.5
6.6.1	mac	0	2023-04-05	13:26:40	1	1	1	experiment	2	experiment_noU	876	1	78	IEV	POS	1						78	35	20	0	0	0	0	1	35	5	12	28	0	3998	376	13	4.5
6.6.1	mac	0	2023-04-05	13:26:40	1	1	1	experiment	2	dispFeedback_noU	1000	1	78	IEV	POS	1	23	0.8666166285610941156	19.6566441957771758098	23	0.1381450419170188459	78	35	20	0	0	0	0	1	35	6	12	28	0	1026	399	13.5	0.5
6.6.1	mac	0	2023-04-05	13:26:40	1	1	1	experiment	2	experiment_noU	999	1	95	IEV	POS	1						95	35	20	0	0	0	0	1	35	6	12	28	0	1026	399	13.5	0.5
6.6.1	mac	0	2023-04-05	13:26:40	1	1	1	experiment	2	dispFeedback_noU	1000	1	95	IEV	POS	1	41	0.7604877922250538047	31.5075731481861751604	41	0.3645341241184003045	95	35	20	0	0	0	0	1	35	7	12	28	0	1999	440	15	1.5
6.6.1	mac	0	2023-04-05	13:26:40	1	1	1	experiment	2	experiment_noU	1246	1	73	IEV	POS	1						73	35	20	0	0	0	0	1	35	7	12	28	0	1999	440	15	1.5
6.6.1	mac	0	2023-04-05	13:26:40	1	1	1	experiment	2	dispFeedback_noU	1000	1	73	IEV	POS	1	28	0.8576669321284486891	24.2691425084322567329	28	0.1351447794901078636	73	35	20	0	0	0	0	1	35	8	12	28	0	1146	468	16	1
6.6.1	mac	0	2023-04-05	13:26:40	1	1	1	experiment	2	experiment_noU	1995	1	3	IEV	POS	1						3	35	20	0	0	0	0	1	35	8	12	28	0	1146	468	16	1
6.6.1	mac	0	2023-04-05	13:26:40	1	1	1	experiment	2	dispFeedback_noU	1000	1	3	IEV	POS	1	95	0.5027732372130386818	47.8328568582155284616	95	0.8862931939974179052	3	35	20	0	0	0	0	1	35	9	12	28	0	3395	563	19.5	3.5
6.6.1	mac	0	2023-04-05	13:26:40	1	1	1	experiment	2	experiment_noU	825	1	70	IEV	POS	1						70	35	20	0	0	0	0	1	35	9	12	28	0	3395	563	19.5	3.5
6.6.1	mac	0	2023-04-05	13:26:40	1	1	1	experiment	2	dispFeedback_noU	1000	1	70	IEV	POS	1	24	0.8901301243084374093	21.3393874580648414963	24	0.9781169576985102587	70	35	20	0	0	0	0	1	35	10	12	28	0	575	587	20	0.5
6.6.1	mac	0	2023-04-05	13:26:40	1	1	1	experiment	2	experiment_noU	870	1	18	IEV	POS	1						18	35	20	0	0	0	0	1	35	10	12	28	0	575	587	20	0.5
6.6.1	mac	0	2023-04-05	13:26:40	1	1	1	experiment	2	dispFeedback_noU	1000	1	18	IEV	POS	1	75	0.5795172300136699484	43.2969143510292227006	75	0.5230164026196618687	18	35	20	0	0	0	0	1	35	11	12	28	0	3020	662	23	3
6.6.1	mac	0	2023-04-05	13:26:40	1	1	1	experiment	2	experiment_noU	834	1	15	IEV	POS	1						15	35	20	0	0	0	0	1	35	11	12	28	0	3020	662	23	3
6.6.1	mac	0	2023-04-05	13:26:40	1	1	1	experiment	2	dispFeedback_noU	1000	1	15	IEV	POS	1	70	0.6162127654757573181	42.9808164387858937516	70	0.2930888923101799826	15	35	20	0	0	0	0	1	35	12	12	28	1	2834	732	25.5	2.5
6.6.1	mac	0	2023-04-05	13:26:40	1	1	1	experiment	2	experiment_U	3487	1	36	IEV	POS	1						36	35	20	0	0	0	0	1	35	12	12	28	1	2834	732	25.5	2.5
6.6.1	mac	0	2023-04-05	13:26:40	1	1	1	experiment	2	dispFeedback_U	1000	1	36	IEV	POS	1	29	0.8203352082792895184	23.4829786232809603064	1	0.9236148553722572929	36	35	20	1	0	1	0	1	35	13	12	28	1	1537	733	26	0.5
6.6.1	mac	0	2023-04-05	13:26:40	1	1	1	experiment	2	experiment_U	1009	1	33	IEV	POS	1						33	35	20	1	0	1	0	1	35	13	12	28	1	1537	733	26	0.5
6.6.1	mac	0	2023-04-05	13:26:40	1	1	1	experiment	2	dispFeedback_U	623	1	33	IEV	POS	1	135	0.3956299464962509949	53.5240209900490953032	1	0.8156465240324956012	33	35	20	1	0	2	0	1	35	14	12	28	1	3909	734	26.5	0.5
