build	computer.platform	computer.touch	date	time	subject	group	sessionid	blockcode	blocknum	trialcode	latency	randStart	startPos	scrfunc	rtvspos	randStart	circleproportion	mag	freq	ev	inc	rng	startPos	n_revolutions	totalPoints	totalEarnings	Earnings
6.6.1	mac	0	2023-01-13	15:37:52	1	1	1	instructions	1	instructions1	550	1	75	IEV	POS	1	0.3300000000000000155						75	0	0	0	
6.6.1	mac	0	2023-01-13	15:37:52	1	1	1	instructions	1	instructions2	270	1	75	IEV	POS	1	0.3300000000000000155						75	0	0	0	
6.6.1	mac	0	2023-01-13	15:37:52	1	1	1	instructions	1	instructions3	211	1	75	IEV	POS	1	0.3300000000000000155						75	0	0	0	
6.6.1	mac	0	2023-01-13	15:37:52	1	1	1	experiment	2	experiment	2267	1	36	IEV	POS	1	0.3300000000000000155						36	4478	0	0	
6.6.1	mac	0	2023-01-13	15:37:52	1	1	1	experiment	2	dispFeedback	1000	1	36	IEV	POS	1	0.3300000000000000155	17	0.9445190948003765463	16.1208971299032484126	0	0.9741034607808346513	36	4478	0	0	0
6.6.1	mac	0	2023-01-13	15:37:52	1	1	1	experiment	2	experiment	640	1	99	IEV	POS	1	0.3300000000000000155						99	7149	0	0	0
6.6.1	mac	0	2023-01-13	15:37:52	1	1	1	experiment	2	dispFeedback	1000	1	99	IEV	POS	1	0.3300000000000000155	51	1.1059292638397064668	55.9961784522116161611	51	0.9524026694596751108	99	7149	51	6	6
6.6.1	mac	0	2023-01-13	15:37:52	1	1	1	experiment	2	experiment	4132	1	55	IEV	POS	1	0.3300000000000000155						55	13325	51	6	6
6.6.1	mac	0	2023-01-13	15:37:52	1	1	1	experiment	2	dispFeedback	1000	1	55	IEV	POS	1	0.3300000000000000155	100	1.1074921812786486797	110.7484402914374328475	100	0.4450173423264681682	55	13325	151	15	9
6.6.1	mac	0	2023-01-13	15:37:52	1	1	1	experiment	2	experiment	2747	1	89	IEV	POS	1	0.3300000000000000155						89	18107	151	15	9
6.6.1	mac	0	2023-01-13	15:37:52	1	1	1	experiment	2	dispFeedback	1000	1	89	IEV	POS	1	0.3300000000000000155	114	1.0863311864673308449	123.898747869998331339	114	0.6294719764565750442	89	18107	265	25	10
6.6.1	mac	0	2023-01-13	15:37:52	1	1	1	experiment	2	experiment	954	1	49	IEV	POS	1	0.3300000000000000155						49	21098	265	25	10
6.6.1	mac	0	2023-01-13	15:37:52	1	1	1	experiment	2	dispFeedback	1000	1	49	IEV	POS	1	0.3300000000000000155	252	0.9485302069528191993	239.2112606916998629458	252	0.6441353472518118739	49	21098	517	25	10
6.6.1	mac	0	2023-01-13	15:37:52	1	1	1	experiment	3	experiment	848	1	49	IEV	POS	1	0.3300000000000000155						49	23994	517	25	10
6.6.1	mac	0	2023-01-13	15:37:52	1	1	1	experiment	3	dispFeedback	1000	1	49	IEV	POS	1	0.3300000000000000155	228	0.9630444658667386415	219.7198440584313630097	228	0.011262682967647604	49	23994	745	25	10
6.6.1	mac	0	2023-01-13	15:37:52	1	1	1	experiment	3	experiment	3837	1	91	IEV	POS	1	0.3300000000000000155						91	29865	745	25	10
6.6.1	mac	0	2023-01-13	15:37:52	1	1	1	experiment	3	dispFeedback	1000	1	91	IEV	POS	1	0.3300000000000000155	244	0.950874142796281463	231.9890095467385151551	244	0.4608585144069182182	91	29865	989	25	10
6.6.1	mac	0	2023-01-13	15:37:52	1	1	1	experiment	3	experiment	3873	1	92	IEV	POS	1	0.3300000000000000155						92	35768	989	25	10
6.6.1	mac	0	2023-01-13	15:37:52	1	1	1	experiment	3	dispFeedback	1000	1	92	IEV	POS	1	0.3300000000000000155	265	0.9389625500458473883	248.7884360480219072542	265	0.5027162033372363226	92	35768	1254	25	10
6.6.1	mac	0	2023-01-13	15:37:52	1	1	1	experiment	3	experiment	3619	1	96	IEV	POS	1	0.3300000000000000155						96	41415	1254	25	10
6.6.1	mac	0	2023-01-13	15:37:52	1	1	1	experiment	3	dispFeedback	1000	1	96	IEV	POS	1	0.3300000000000000155	247	0.9464574214371984651	233.8561542867217895036	247	0.4186738597738262624	96	41415	1501	25	10
6.6.1	mac	0	2023-01-13	15:37:52	1	1	1	experiment	3	experiment	448	1	62	IEV	POS	1	0.3300000000000000155						62	43894	1501	25	10
6.6.1	mac	0	2023-01-13	15:37:52	1	1	1	experiment	3	dispFeedback	1000	1	62	IEV	POS	1	0.3300000000000000155	275	0.9284804690354784285	255.6688875945514212162	275	0.5576361144328574326	62	43894	1776	25	10
6.6.1	mac	0	2023-01-13	15:37:52	1	1	1	endscreen	4	endscreen	3000	1	62	IEV	POS	1	0.3300000000000000155						62	43894	1776	25	
