build	computer.platform	computer.touch	date	time	subject	group	sessionid	blockcode	blocknum	trialcode	latency	randStart	startPos	scrfunc	rtvspos	randStart	circleproportion	mag	freq	ev	inc	rng	startPos	n_revolutions	totalPoints
6.6.1	mac	0	2023-01-13	13:31:41	1	1	1	instructions	1	instructions1	455	1	75	DEV	POS	1	0.3300000000000000155						75	0	0
6.6.1	mac	0	2023-01-13	13:31:41	1	1	1	instructions	1	instructions2	197	1	75	DEV	POS	1	0.3300000000000000155						75	0	0
6.6.1	mac	0	2023-01-13	13:31:41	1	1	1	instructions	1	instructions3	158	1	75	DEV	POS	1	0.3300000000000000155						75	0	0
6.6.1	mac	0	2023-01-13	13:31:41	1	1	1	experiment	2	experiment	332	1	84	DEV	POS	1	0.3300000000000000155						84	2300	0
6.6.1	mac	0	2023-01-13	13:31:41	1	1	1	experiment	2	dispFeedback	1000	1	84	DEV	POS	1	0.3300000000000000155	71	0.6953049942338367373	49.0265137169967388786	0	0.8528325582977460684	84	2300	0
6.6.1	mac	0	2023-01-13	13:31:41	1	1	1	experiment	2	experiment	334	1	26	DEV	POS	1	0.3300000000000000155						26	4684	0
6.6.1	mac	0	2023-01-13	13:31:41	1	1	1	experiment	2	dispFeedback	1000	1	26	DEV	POS	1	0.3300000000000000155	64	0.3695338180774041525	23.4693896512490844941	0	0.8391177833171370448	26	4684	0
6.6.1	mac	0	2023-01-13	13:31:41	1	1	1	experiment	2	experiment	303	1	86	DEV	POS	1	0.3300000000000000155						86	7035	0
6.6.1	mac	0	2023-01-13	13:31:41	1	1	1	experiment	2	dispFeedback	1000	1	86	DEV	POS	1	0.3300000000000000155	65	0.6788006713278247339	43.7899766221719133341	65	0.6180998630863846488	86	7035	65
6.6.1	mac	0	2023-01-13	13:31:41	1	1	1	experiment	2	experiment	273	1	96	DEV	POS	1	0.3300000000000000155						96	9355	65
6.6.1	mac	0	2023-01-13	13:31:41	1	1	1	experiment	2	dispFeedback	1000	1	96	DEV	POS	1	0.3300000000000000155	68	0.5796810055781327353	39.1347303735671800951	68	0.1887341433178480188	96	9355	133
6.6.1	mac	0	2023-01-13	13:31:41	1	1	1	experiment	2	experiment	387	1	10	DEV	POS	1	0.3300000000000000155						10	11786	133
6.6.1	mac	0	2023-01-13	13:31:41	1	1	1	experiment	2	dispFeedback	1000	1	10	DEV	POS	1	0.3300000000000000155	63	0.4498861322583045386	28.1227435436862371887	0	0.5726439884334438846	10	11786	133
6.6.1	mac	0	2023-01-13	13:31:41	1	1	1	experiment	3	experiment	577	1	70	DEV	POS	1	0.3300000000000000155						70	14410	133
6.6.1	mac	0	2023-01-13	13:31:41	1	1	1	experiment	3	dispFeedback	1000	1	70	DEV	POS	1	0.3300000000000000155	66	0.8097643750474712299	53.048314733922012465	66	0.120305256247591516	70	14410	199
6.6.1	mac	0	2023-01-13	13:31:41	1	1	1	experiment	3	experiment	2505	1	31	DEV	POS	1	0.3300000000000000155						31	18953	199
6.6.1	mac	0	2023-01-13	13:31:41	1	1	1	experiment	3	dispFeedback	1000	1	31	DEV	POS	1	0.3300000000000000155	71	0.8156483694381791993	57.5120217805576317005	71	0.695188532978107343	31	18953	270
6.6.1	mac	0	2023-01-13	13:31:41	1	1	1	experiment	3	experiment	1891	1	45	DEV	POS	1	0.3300000000000000155						45	22888	270
6.6.1	mac	0	2023-01-13	13:31:41	1	1	1	experiment	3	dispFeedback	1000	1	45	DEV	POS	1	0.3300000000000000155	63	0.7928171287943216461	49.5596356309175831711	0	0.8550078547222091929	45	22888	270
6.6.1	mac	0	2023-01-13	13:31:41	1	1	1	experiment	3	experiment	788	1	14	DEV	POS	1	0.3300000000000000155						14	25720	270
6.6.1	mac	0	2023-01-13	13:31:41	1	1	1	experiment	3	dispFeedback	1000	1	14	DEV	POS	1	0.3300000000000000155	66	0.3830626012498439259	25.0947387413842548654	0	0.8593838193592111541	14	25720	270
6.6.1	mac	0	2023-01-13	13:31:41	1	1	1	experiment	3	experiment	0	1	94	DEV	POS	1	0.3300000000000000155						94	26909	270
