build	computer.platform	computer.touch	date	time	subject	group	sessionid	blockcode	blocknum	trialcode	latency	randStart	startPos	scrfunc	rtvspos	randStart	circleproportion	mag	freq	ev	inc	rng	startPos	n_revolutions	totalPoints	totalEarnings	Earnings
6.6.1	mac	0	2023-01-19	12:20:15	1	1	1	experiment	1	experiment_noU	946	1	62	DEV	POS	1	0.3300000000000000155						62	2054	0	0	
6.6.1	mac	0	2023-01-19	12:20:15	1	1	1	experiment	1	dispFeedback_noU	1000	1	62	DEV	POS	1	0.3300000000000000155	64	0.8180638765212923103	51.9558939898375555799	0	0.943027478396666119	62	2054	0	0	0
6.6.1	mac	0	2023-01-19	12:20:15	1	1	1	experiment	1	experiment_noU	413	1	24	DEV	POS	1	0.3300000000000000155						24	4486	0	0	0
6.6.1	mac	0	2023-01-19	12:20:15	1	1	1	experiment	1	dispFeedback_noU	1000	1	24	DEV	POS	1	0.3300000000000000155	65	0.3714289302358377842	23.9611786771062185153	0	0.4270953010830784713	24	4486	0	0	0
6.6.1	mac	0	2023-01-19	12:20:15	1	1	1	experiment	1	experiment_U	1131	1	61	DEV	POS	1	0.3300000000000000155						61	7637	0	0	0
6.6.1	mac	0	2023-01-19	12:20:15	1	1	1	experiment	1	dispFeedback_U	1000	1	61	DEV	POS	1	0.3300000000000000155	63	0.782357096617033454	48.9057706164439096597	0	0.9474617673427475628	61	7637	0	0	0
6.6.1	mac	0	2023-01-19	12:20:15	1	1	1	experiment	1	experiment_U	1116	1	91	DEV	POS	1	0.3300000000000000155						91	10773	0	0	0
6.6.1	mac	0	2023-01-19	12:20:15	1	1	1	experiment	1	dispFeedback_U	1000	1	91	DEV	POS	1	0.3300000000000000155	63	0.4801372094236783239	30.0137626795097247623	0	0.8827597326326089844	91	10773	0	0	0
6.6.1	mac	0	2023-01-19	12:20:15	1	1	1	experiment	1	experiment_U	414	1	85	DEV	POS	1	0.3300000000000000155						85	13220	0	0	0
6.6.1	mac	0	2023-01-19	12:20:15	1	1	1	experiment	1	dispFeedback_U	1000	1	85	DEV	POS	1	0.3300000000000000155	68	0.6649338111105306259	44.8902157629376930004	68	0.4733256205155806917	85	13220	68	7	7
6.6.1	mac	0	2023-01-19	12:20:15	1	1	1	experiment	1	experiment_U	348	1	95	DEV	POS	1	0.3300000000000000155						95	15587	68	7	7
6.6.1	mac	0	2023-01-19	12:20:15	1	1	1	experiment	1	dispFeedback_U	1000	1	95	DEV	POS	1	0.3300000000000000155	68	0.5749131489500474146	38.812848542345449232	68	0.1507484035451776283	95	15587	136	14	7
6.6.1	mac	0	2023-01-19	12:20:15	1	1	1	experiment	1	experiment_U	2301	1	52	DEV	POS	1	0.3300000000000000155						52	19907	136	14	7
6.6.1	mac	0	2023-01-19	12:20:15	1	1	1	experiment	1	dispFeedback_U	1000	1	52	DEV	POS	1	0.3300000000000000155	65	0.6138742539045402014	39.6015212755302101755	0	0.9136483967103177228	52	19907	136	14	0
6.6.1	mac	0	2023-01-19	12:20:15	1	1	1	experiment	2	experiment_noU	1488	1	42	IEV	POS	1	0.3300000000000000155						42	23426	136	14	0
6.6.1	mac	0	2023-01-19	12:20:15	1	1	1	experiment	2	dispFeedback_noU	1000	1	42	IEV	POS	1	0.3300000000000000155	290	0.9228626837104455527	267.444094252858121763	290	0.5952070747956650365	42	23426	426	24	10
6.6.1	mac	0	2023-01-19	12:20:15	1	1	1	experiment	2	experiment_noU	372	1	61	IEV	POS	1	0.3300000000000000155						61	25809	426	24	10
6.6.1	mac	0	2023-01-19	12:20:15	1	1	1	experiment	2	dispFeedback_noU	1000	1	61	IEV	POS	1	0.3300000000000000155	250	0.946042363241766715	236.1993569040528200276	250	0.1296726551674475536	61	25809	676	34	10
6.6.1	mac	0	2023-01-19	12:20:15	1	1	1	experiment	2	experiment_U	1189	1	35	IEV	POS	1	0.3300000000000000155						35	29009	676	34	10
6.6.1	mac	0	2023-01-19	12:20:15	1	1	1	experiment	2	dispFeedback_U	1000	1	35	IEV	POS	1	0.3300000000000000155	178	1.0097547112108014034	179.6056081868881904029	178	0.8146401040290109918	35	29009	854	44	10
6.6.1	mac	0	2023-01-19	12:20:15	1	1	1	experiment	2	experiment_U	724	1	36	IEV	POS	1	0.3300000000000000155						36	31744	854	44	10
6.6.1	mac	0	2023-01-19	12:20:15	1	1	1	experiment	2	dispFeedback_U	1000	1	36	IEV	POS	1	0.3300000000000000155	138	1.0566818710324270558	145.353456335993570292	138	0.0275428632804059562	36	31744	992	54	10
6.6.1	mac	0	2023-01-19	12:20:15	1	1	1	experiment	2	experiment_U	534	1	55	IEV	POS	1	0.3300000000000000155						55	34304	992	54	10
6.6.1	mac	0	2023-01-19	12:20:15	1	1	1	experiment	2	dispFeedback_U	1000	1	55	IEV	POS	1	0.3300000000000000155	231	0.9649419233728682155	222.7157653800207981476	231	0.1671073581481136716	55	34304	1223	64	10
6.6.1	mac	0	2023-01-19	12:20:15	1	1	1	experiment	2	experiment_U	302	1	66	IEV	POS	1	0.3300000000000000155						66	36623	1223	64	10
6.6.1	mac	0	2023-01-19	12:20:15	1	1	1	experiment	2	dispFeedback_U	1000	1	66	IEV	POS	1	0.3300000000000000155	290	0.9208928653382628671	267.2652139699082454172	290	0.203936562920905784	66	36623	1513	74	10
6.6.1	mac	0	2023-01-19	12:20:15	1	1	1	experiment	2	experiment_U	624	1	53	IEV	POS	1	0.3300000000000000155						53	39295	1513	74	10
6.6.1	mac	0	2023-01-19	12:20:15	1	1	1	experiment	2	dispFeedback_U	1000	1	53	IEV	POS	1	0.3300000000000000155	226	0.96629418216321461	218.5330949845747454674	226	0.7255515176163873647	53	39295	1739	84	10
6.6.1	mac	0	2023-01-19	12:20:15	1	1	1	endscreen	3	endscreen	2494	1	53	IEV	POS	1	0.3300000000000000155						53	39295	1739	84	
