build	computer.platform	computer.touch	date	time	subject	group	sessionid	blockcode	blocknum	trialcode	latency	randStart	startPos	scrfunc	rtvspos	randStart	circleproportion	mag	freq	ev	inc	rng	startPos	n_revolutions	totalPoints	totalEarnings	Earnings
6.6.1	mac	0	2023-01-18	16:31:18	1	1	1	experiment	1	experiment_noU	414	1	30	DEV	POS	1	0.3300000000000000155						30	1512	0	0	
6.6.1	mac	0	2023-01-18	16:31:18	1	1	1	experiment	1	dispFeedback_noU	1000	1	30	DEV	POS	1	0.3300000000000000155	65	0.3456067250957662873	22.2953674792404967775	0	0.3719866833118690708	30	1512	0	0	0
6.6.1	mac	0	2023-01-18	16:31:18	1	1	1	experiment	1	experiment_noU	351	1	91	DEV	POS	1	0.3300000000000000155						91	3880	0	0	0
6.6.1	mac	0	2023-01-18	16:31:18	1	1	1	experiment	1	dispFeedback_noU	1000	1	91	DEV	POS	1	0.3300000000000000155	69	0.6138742539045402014	42.0570182911483740895	69	0.1233367196105738944	91	3880	69	7	7
6.6.1	mac	0	2023-01-18	16:31:18	1	1	1	experiment	1	experiment_U	1281	1	42	DEV	POS	1	0.3300000000000000155						42	7175	69	7	7
6.6.1	mac	0	2023-01-18	16:31:18	1	1	1	experiment	1	dispFeedback_U	1000	1	42	DEV	POS	1	0.3300000000000000155	71	0.2247321634187686712	15.8460453813384045674	0	0.6683994798614641963	42	7175	69	7	0
6.6.1	mac	0	2023-01-18	16:31:18	1	1	1	experiment	1	experiment_U	396	1	92	DEV	POS	1	0.3300000000000000155						92	9591	69	7	0
6.6.1	mac	0	2023-01-18	16:31:18	1	1	1	experiment	1	dispFeedback_U	1000	1	92	DEV	POS	1	0.3300000000000000155	71	0.5946884049052476584	41.9319571730572135948	0	0.9716297928177820564	92	9591	69	7	0
6.6.1	mac	0	2023-01-18	16:31:18	1	1	1	experiment	1	experiment_U	2362	1	34	DEV	POS	1	0.3300000000000000155						34	13974	69	7	0
6.6.1	mac	0	2023-01-18	16:31:18	1	1	1	experiment	1	dispFeedback_U	1000	1	34	DEV	POS	1	0.3300000000000000155	61	0.8137730088789669747	49.2420585121661886774	61	0.7150603329565050625	34	13974	130	14	7
6.6.1	mac	0	2023-01-18	16:31:18	1	1	1	experiment	1	experiment_U	922	1	65	DEV	POS	1	0.3300000000000000155						65	16933	130	14	7
6.6.1	mac	0	2023-01-18	16:31:18	1	1	1	experiment	1	dispFeedback_U	1000	1	65	DEV	POS	1	0.3300000000000000155	69	0.7847015726716807249	53.7605351340858490516	69	0.7389817043996839141	65	16933	199	21	7
6.6.1	mac	0	2023-01-18	16:31:18	1	1	1	experiment	1	experiment_U	451	1	92	DEV	POS	1	0.3300000000000000155						92	19413	199	21	7
6.6.1	mac	0	2023-01-18	16:31:18	1	1	1	experiment	1	dispFeedback_U	1000	1	92	DEV	POS	1	0.3300000000000000155	70	0.5839191576048474719	40.5886897368216565951	70	0.3896729306759482703	92	19413	269	28	7
6.6.1	mac	0	2023-01-18	16:31:18	1	1	1	experiment	2	experiment_noU	2160	1	66	IEV	POS	1	0.3300000000000000155						66	23604	269	28	7
6.6.1	mac	0	2023-01-18	16:31:18	1	1	1	experiment	2	dispFeedback_noU	1000	1	66	IEV	POS	1	0.3300000000000000155	52	1.0978461697928751928	57.4648114419453293067	52	0.6075358408520780129	66	23604	321	34	6
6.6.1	mac	0	2023-01-18	16:31:18	1	1	1	experiment	2	experiment_noU	2072	1	99	IEV	POS	1	0.3300000000000000155						99	27699	321	34	6
6.6.1	mac	0	2023-01-18	16:31:18	1	1	1	experiment	2	dispFeedback_noU	1000	1	99	IEV	POS	1	0.3300000000000000155	105	1.0990453694516733041	114.9153154297252683591	105	0.5835293549074627162	99	27699	426	44	10
6.6.1	mac	0	2023-01-18	16:31:18	1	1	1	experiment	2	experiment_U	2660	1	90	IEV	POS	1	0.3300000000000000155						90	32387	426	44	10
6.6.1	mac	0	2023-01-18	16:31:18	1	1	1	experiment	2	dispFeedback_U	640	1	90	IEV	POS	1	0.3300000000000000155	118	1.089212531017088148	128.2307594527453318278	118	0.9471972747582936281	90	32387	544	54	10
