build	computer.platform	computer.touch	date	time	subject	group	sessionid	blockcode	blocknum	trialcode	latency	randStart	startPos	scrfunc	rtvspos	randStart	circleproportion	mag	freq	ev	inc	rng	startPos	n_revolutions	totalPoints	totalEarnings	Earnings
6.6.1	mac	0	2023-01-18	11:29:07	1	1	1	experiment	1	experiment	2359	1	97	DEV	POS	1	0.3300000000000000155						97	3458	0	0	
6.6.1	mac	0	2023-01-18	11:29:07	1	1	1	experiment	1	dispFeedback	1000	1	97	DEV	POS	1	0.3300000000000000155	63	0.3222618481044703387	20.1448470142059932186	63	0.0491822946465532984	97	3458	63	7	7
6.6.1	mac	0	2023-01-18	11:29:07	1	1	1	experiment	1	experiment	681	1	81	DEV	POS	1	0.3300000000000000155						81	6161	63	7	7
6.6.1	mac	0	2023-01-18	11:29:07	1	1	1	experiment	1	dispFeedback	1000	1	81	DEV	POS	1	0.3300000000000000155	66	0.650041541781055221	42.5847436132316659041	0	0.838949825577193331	81	6161	63	7	0
6.6.1	mac	0	2023-01-18	11:29:07	1	1	1	experiment	1	experiment	301	1	79	DEV	POS	1	0.3300000000000000155						79	8481	63	7	0
6.6.1	mac	0	2023-01-18	11:29:07	1	1	1	experiment	1	dispFeedback	1000	1	79	DEV	POS	1	0.3300000000000000155	67	0.7643051969938416956	50.8345526569721570809	67	0.7540256059155858726	79	8481	130	14	7
6.6.1	mac	0	2023-01-18	11:29:07	1	1	1	experiment	1	experiment	799	1	69	DEV	POS	1	0.3300000000000000155						69	11312	130	14	7
6.6.1	mac	0	2023-01-18	11:29:07	1	1	1	experiment	1	dispFeedback	1000	1	69	DEV	POS	1	0.3300000000000000155	68	0.7648164018616757653	51.6333697052701339203	68	0.1812483738598526517	69	11312	198	21	7
6.6.1	mac	0	2023-01-18	11:29:07	1	1	1	experiment	2	experiment	444	1	88	IEV	POS	1	0.3300000000000000155						88	13809	198	21	7
6.6.1	mac	0	2023-01-18	11:29:07	1	1	1	experiment	2	dispFeedback	1000	1	88	IEV	POS	1	0.3300000000000000155	38	1.0427658076203085713	39.6144362274407910718	38	0.3572362955560061115	88	13809	236	26	5
6.6.1	mac	0	2023-01-18	11:29:07	1	1	1	experiment	2	experiment	2857	1	8	IEV	POS	1	0.3300000000000000155						8	18703	236	26	5
6.6.1	mac	0	2023-01-18	11:29:07	1	1	1	experiment	2	dispFeedback	1000	1	8	IEV	POS	1	0.3300000000000000155	225	0.9685869871403951503	218.3102853875558650998	225	0.0059453828739806508	8	18703	461	26	5
6.6.1	mac	0	2023-01-18	11:29:07	1	1	1	experiment	2	experiment	2405	1	19	IEV	POS	1	0.3300000000000000155						19	23134	461	26	5
6.6.1	mac	0	2023-01-18	11:29:07	1	1	1	experiment	2	dispFeedback	1000	1	19	IEV	POS	1	0.3300000000000000155	239	0.9552702985182959239	228.3993169063068933156	239	0.5653446820949541429	19	23134	700	26	5
6.6.1	mac	0	2023-01-18	11:29:07	1	1	1	experiment	2	experiment	3059	1	5	IEV	POS	1	0.3300000000000000155						5	28237	700	26	5
6.6.1	mac	0	2023-01-18	11:29:07	1	1	1	experiment	2	dispFeedback	1000	1	5	IEV	POS	1	0.3300000000000000155	235	0.9615501768177278086	225.9828992143110326651	235	0.0105047682324668316	5	28237	935	26	5
6.6.1	mac	0	2023-01-18	11:29:07	1	1	1	experiment	2	experiment	5062	1	63	IEV	POS	1	0.3300000000000000155						63	35340	935	26	5
6.6.1	mac	0	2023-01-18	11:29:07	1	1	1	experiment	2	dispFeedback	1000	1	63	IEV	POS	1	0.3300000000000000155	212	0.9746177141689051915	206.9281729926975970102	212	0.1299615267501122995	63	35340	1147	26	5
6.6.1	mac	0	2023-01-18	11:29:07	1	1	1	endscreen	3	endscreen	1250	1	63	IEV	POS	1	0.3300000000000000155						63	35340	1147	26	
