build	computer.platform	computer.touch	date	time	subject	group	sessionid	blockcode	blocknum	trialcode	latency	randStart	startPos	scrfunc	rtvspos	randStart	circleproportion	mag	freq	ev	inc	rng	startPos	n_revolutions	totalPoints	totalEarnings	Earnings
6.6.1	mac	0	2023-01-18	16:12:32	1	1	1	experiment	1	experiment_noU	397	1	46	DEV	POS	1	0.3300000000000000155						46	1501	0	0	
6.6.1	mac	0	2023-01-18	16:12:32	1	1	1	experiment	1	dispFeedback_noU	1000	1	46	DEV	POS	1	0.3300000000000000155	65	0.2845117032842183757	18.3540785414652525276	0	0.6358061480884920069	46	1501	0	0	0
6.6.1	mac	0	2023-01-18	16:12:32	1	1	1	experiment	1	experiment_noU	190	1	51	DEV	POS	1	0.3300000000000000155						51	3725	0	0	0
6.6.1	mac	0	2023-01-18	16:12:32	1	1	1	experiment	1	dispFeedback_noU	1000	1	51	DEV	POS	1	0.3300000000000000155	67	0.2810893123367125823	18.6954759767358247302	0	0.3392218866709670877	51	3725	0	0	0
6.6.1	mac	0	2023-01-18	16:12:32	1	1	1	experiment	1	experiment_U	404	1	75	DEV	POS	1	0.3300000000000000155						75	6172	0	0	0
6.6.1	mac	0	2023-01-18	16:12:32	1	1	1	experiment	1	dispFeedback_U	1000	1	75	DEV	POS	1	0.3300000000000000155	62	0.7894062982169227638	48.5570155732152315409	62	0.4051772722520812775	75	6172	62	7	7
6.6.1	mac	0	2023-01-18	16:12:32	1	1	1	experiment	1	experiment_U	242	1	8	DEV	POS	1	0.3300000000000000155						8	8444	62	7	7
6.6.1	mac	0	2023-01-18	16:12:32	1	1	1	experiment	1	dispFeedback_U	1000	1	8	DEV	POS	1	0.3300000000000000155	63	0.483634054882328801	30.232353298322280466	0	0.697571120154478419	8	8444	62	7	0
6.6.1	mac	0	2023-01-18	16:12:32	1	1	1	experiment	1	experiment_U	231	1	70	DEV	POS	1	0.3300000000000000155						70	10715	62	7	0
6.6.1	mac	0	2023-01-18	16:12:32	1	1	1	experiment	1	dispFeedback_U	1000	1	70	DEV	POS	1	0.3300000000000000155	67	0.1878662172613664028	12.4951330324606590949	67	0.0534082823557332845	70	10715	129	14	7
6.6.1	mac	0	2023-01-18	16:12:32	1	1	1	experiment	1	experiment_U	252	1	71	DEV	POS	1	0.3300000000000000155						71	12987	129	14	7
6.6.1	mac	0	2023-01-18	16:12:32	1	1	1	experiment	1	dispFeedback_U	1000	1	71	DEV	POS	1	0.3300000000000000155	61	0.8852820764345479265	53.5691296367948481816	61	0.1179828043370467622	71	12987	190	21	7
6.6.1	mac	0	2023-01-18	16:12:32	1	1	1	experiment	1	experiment_U	625	1	58	DEV	POS	1	0.3300000000000000155						58	15642	190	21	7
6.6.1	mac	0	2023-01-18	16:12:32	1	1	1	experiment	1	dispFeedback_U	1000	1	58	DEV	POS	1	0.3300000000000000155	62	0.2101830579033995006	12.9285287422888988118	0	0.3475656403106557324	58	15642	190	21	0
6.6.1	mac	0	2023-01-18	16:12:32	1	1	1	experiment	1	experiment_U	343	1	81	DEV	POS	1	0.3300000000000000155						81	18010	190	21	0
6.6.1	mac	0	2023-01-18	16:12:32	1	1	1	experiment	1	dispFeedback_U	1000	1	81	DEV	POS	1	0.3300000000000000155	61	0.7287210891154421999	44.0954985207786478441	61	0.7192090034296757528	81	18010	251	28	7
6.6.1	mac	0	2023-01-18	16:12:32	1	1	1	experiment	2	experiment_noU	280	1	31	CEVR	POS	1	0.3300000000000000155						31	20329	251	28	7
6.6.1	mac	0	2023-01-18	16:12:32	1	1	1	experiment	2	dispFeedback_noU	1000	1	31	CEVR	POS	1	0.3300000000000000155	89	0.2803030303030303316	24.9469696969696990152	0	0.746497658720821522	31	20329	251	28	0
6.6.1	mac	0	2023-01-18	16:12:32	1	1	1	experiment	2	experiment_noU	235	1	54	CEVR	POS	1	0.3300000000000000155						54	22585	251	28	0
6.6.1	mac	0	2023-01-18	16:12:32	1	1	1	experiment	2	dispFeedback_noU	1000	1	54	CEVR	POS	1	0.3300000000000000155	57	0.3684210526315789824	21.1578947368421097508	0	0.9605648273044649077	54	22585	251	28	0
6.6.1	mac	0	2023-01-18	16:12:32	1	1	1	experiment	2	experiment_U	369	1	20	CEVR	POS	1	0.3300000000000000155						20	24985	251	28	0
