build	computer.platform	computer.touch	date	time	subject	group	sessionid	blockcode	blocknum	trialcode	latency	randStart	startPos	scrfunc	rtvspos	randStart	circleproportion	mag	freq	ev	inc	rng	startPos	n_revolutions	totalPoints	totalEarnings	Earnings
6.6.1	mac	0	2023-01-19	12:22:38	1	1	1	experiment	1	experiment_noU	521	1	32	IEV	POS	1	0.3300000000000000155						32	1640	0	0	
6.6.1	mac	0	2023-01-19	12:22:38	1	1	1	experiment	1	dispFeedback_noU	1000	1	32	IEV	POS	1	0.3300000000000000155	115	1.0921388967504512824	125.9687907112217715166	115	0.8994074933927989068	32	1640	115	10	10
6.6.1	mac	0	2023-01-19	12:22:38	1	1	1	experiment	1	experiment_noU	325	1	14	IEV	POS	1	0.3300000000000000155						14	3992	115	10	10
6.6.1	mac	0	2023-01-19	12:22:38	1	1	1	experiment	1	dispFeedback_noU	1000	1	14	IEV	POS	1	0.3300000000000000155	63	1.1227553229862254902	70.9411253486409805191	63	0.7005269368413199471	14	3992	178	17	7
6.6.1	mac	0	2023-01-19	12:22:38	1	1	1	experiment	1	experiment_U	358	1	37	IEV	POS	1	0.3300000000000000155						37	6375	178	17	7
6.6.1	mac	0	2023-01-19	12:22:38	1	1	1	experiment	1	dispFeedback_U	1000	1	37	IEV	POS	1	0.3300000000000000155	115	1.0854550796379518474	124.5616218122621461362	115	0.9878199249477638277	37	6375	293	27	10
6.6.1	mac	0	2023-01-19	12:22:38	1	1	1	experiment	1	experiment_U	342	1	94	IEV	POS	1	0.3300000000000000155						94	8743	293	27	10
6.6.1	mac	0	2023-01-19	12:22:38	1	1	1	experiment	1	dispFeedback_U	1000	1	94	IEV	POS	1	0.3300000000000000155	35	1.0632416678431195756	37.1323345683390186878	35	0.3821028332184308041	94	8743	328	32	5
6.6.1	mac	0	2023-01-19	12:22:38	1	1	1	experiment	1	experiment_U	344	1	78	IEV	POS	1	0.3300000000000000155						78	11110	328	32	5
6.6.1	mac	0	2023-01-19	12:22:38	1	1	1	experiment	1	dispFeedback_U	1000	1	78	IEV	POS	1	0.3300000000000000155	22	0.9687216168815069306	21.028279356055431748	22	0.6850563347537667047	78	11110	350	34	2
6.6.1	mac	0	2023-01-19	12:22:38	1	1	1	experiment	1	experiment_U	584	1	47	IEV	POS	1	0.3300000000000000155						47	13718	350	34	2
6.6.1	mac	0	2023-01-19	12:22:38	1	1	1	experiment	1	dispFeedback_U	1000	1	47	IEV	POS	1	0.3300000000000000155	178	1.0103712249084946251	180.1398019783800918958	178	0.390448785710718671	47	13718	528	44	10
6.6.1	mac	0	2023-01-19	12:22:38	1	1	1	experiment	1	experiment_U	751	1	47	IEV	POS	1	0.3300000000000000155						47	16501	528	44	10
6.6.1	mac	0	2023-01-19	12:22:38	1	1	1	experiment	1	dispFeedback_U	1000	1	47	IEV	POS	1	0.3300000000000000155	196	0.989228513259203357	194.1524361529019131467	196	0.7124046410229999404	47	16501	724	54	10
6.6.1	mac	0	2023-01-19	12:22:38	1	1	1	experiment	2	experiment_noU	480	1	84	IEV	POS	1	0.3300000000000000155						84	19013	724	54	10
6.6.1	mac	0	2023-01-19	12:22:38	1	1	1	experiment	2	dispFeedback_noU	1000	1	84	IEV	POS	1	0.3300000000000000155	31	1.0241203208913969291	31.6975701759921975054	31	0.7323954500566226544	84	19013	755	58	4
6.6.1	mac	0	2023-01-19	12:22:38	1	1	1	experiment	2	experiment_noU	364	1	57	IEV	POS	1	0.3300000000000000155						57	21396	755	58	4
6.6.1	mac	0	2023-01-19	12:22:38	1	1	1	experiment	2	dispFeedback_noU	1000	1	57	IEV	POS	1	0.3300000000000000155	216	0.9743509129885827846	210.0937071648448579708	216	0.8889699557071947256	57	21396	971	68	10
6.6.1	mac	0	2023-01-19	12:22:38	1	1	1	experiment	2	experiment_noU	285	1	18	IEV	POS	1	0.3300000000000000155						18	23700	971	68	10
6.6.1	mac	0	2023-01-19	12:22:38	1	1	1	experiment	2	dispFeedback_noU	1000	1	18	IEV	POS	1	0.3300000000000000155	68	1.1248123802270715288	75.9388761905973410649	68	0.280208920892376645	18	23700	1039	75	7
6.6.1	mac	0	2023-01-19	12:22:38	1	1	1	experiment	2	experiment_noU	303	1	18	IEV	POS	1	0.3300000000000000155						18	26035	1039	75	7
6.6.1	mac	0	2023-01-19	12:22:38	1	1	1	experiment	2	dispFeedback_noU	1000	1	18	IEV	POS	1	0.3300000000000000155	65	1.1249018983271230621	73.2756299613373300872	65	0.4270875694758928254	18	26035	1104	82	7
6.6.1	mac	0	2023-01-19	12:22:38	1	1	1	experiment	2	experiment_noU	385	1	73	IEV	POS	1	0.3300000000000000155						73	28451	1104	82	7
6.6.1	mac	0	2023-01-19	12:22:38	1	1	1	experiment	2	dispFeedback_noU	1000	1	73	IEV	POS	1	0.3300000000000000155	18	0.9400759403094472999	16.5521378929324960438	18	0.2587971436462358499	73	28451	1122	84	2
6.6.1	mac	0	2023-01-19	12:22:38	1	1	1	experiment	2	experiment_noU	304	1	86	IEV	POS	1	0.3300000000000000155						86	30786	1122	84	2
6.6.1	mac	0	2023-01-19	12:22:38	1	1	1	experiment	2	dispFeedback_noU	1000	1	86	IEV	POS	1	0.3300000000000000155	33	1.0150206944500750339	33.0946257917691610828	33	0.1435434867496470646	86	30786	1155	89	5
6.6.1	mac	0	2023-01-19	12:22:38	1	1	1	experiment	2	experiment_noU	291	1	74	IEV	POS	1	0.3300000000000000155						74	33106	1155	89	5
6.6.1	mac	0	2023-01-19	12:22:38	1	1	1	experiment	2	dispFeedback_noU	1000	1	74	IEV	POS	1	0.3300000000000000155	20	0.9339405182185923637	18.6618614017058241927	20	0.3841255189348304344	74	33106	1175	91	2
6.6.1	mac	0	2023-01-19	12:22:38	1	1	1	endscreen	3	endscreen	5000	1	74	IEV	POS	1	0.3300000000000000155						74	33106	1175	91	
