build	computer.platform	computer.touch	date	time	subject	group	sessionid	blockcode	blocknum	trialcode	latency	randStart	startPos	scrfunc	rtvspos	randStart	circleproportion	mag	freq	ev	inc	rng	startPos	n_revolutions	totalPoints	totalEarnings	Earnings
6.6.1	mac	0	2023-01-19	12:23:23	1	1	1	experiment	1	experiment_noU	668	1	67	DEV	POS	1	0.3300000000000000155						67	1762	0	0	
6.6.1	mac	0	2023-01-19	12:23:23	1	1	1	experiment	1	dispFeedback_noU	1000	1	67	DEV	POS	1	0.3300000000000000155	62	0.8256095958540098367	50.7839094948073253022	0	0.9129379608000018909	67	1762	0	0	0
6.6.1	mac	0	2023-01-19	12:23:23	1	1	1	experiment	1	experiment_noU	1778	1	48	DEV	POS	1	0.3300000000000000155						48	5570	0	0	0
6.6.1	mac	0	2023-01-19	12:23:23	1	1	1	experiment	1	dispFeedback_noU	1000	1	48	DEV	POS	1	0.3300000000000000155	65	0.7831380016114802833	50.5208616182101053482	65	0.5798133750399140363	48	5570	65	7	7
6.6.1	mac	0	2023-01-19	12:23:23	1	1	1	experiment	1	experiment_U	521	1	32	DEV	POS	1	0.3300000000000000155						32	8113	65	7	7
6.6.1	mac	0	2023-01-19	12:23:23	1	1	1	experiment	1	dispFeedback_U	1000	1	32	DEV	POS	1	0.3300000000000000155	65	0.3290992335584013162	21.2304559388645905926	65	0.0171275609212758854	32	8113	130	14	7
6.6.1	mac	0	2023-01-19	12:23:23	1	1	1	experiment	1	experiment_U	339	1	63	DEV	POS	1	0.3300000000000000155						63	10480	130	14	7
6.6.1	mac	0	2023-01-19	12:23:23	1	1	1	experiment	1	dispFeedback_U	1000	1	63	DEV	POS	1	0.3300000000000000155	70	0.2138984174491696255	14.868250832278279816	0	0.4914211652920165152	63	10480	130	14	0
6.6.1	mac	0	2023-01-19	12:23:23	1	1	1	experiment	1	experiment_U	341	1	22	DEV	POS	1	0.3300000000000000155						22	12848	130	14	0
6.6.1	mac	0	2023-01-19	12:23:23	1	1	1	experiment	1	dispFeedback_U	1000	1	22	DEV	POS	1	0.3300000000000000155	71	0.3876056232969835591	27.3303838818160258484	0	0.7449168413283575596	22	12848	130	14	0
6.6.1	mac	0	2023-01-19	12:23:23	1	1	1	experiment	1	experiment_U	341	1	38	DEV	POS	1	0.3300000000000000155						38	15216	130	14	0
6.6.1	mac	0	2023-01-19	12:23:23	1	1	1	experiment	1	dispFeedback_U	1000	1	38	DEV	POS	1	0.3300000000000000155	70	0.3197918200117076948	22.2289863139112107149	0	0.9251806428481779143	38	15216	130	14	0
6.6.1	mac	0	2023-01-19	12:23:23	1	1	1	experiment	1	experiment_U	1222	1	6	DEV	POS	1	0.3300000000000000155						6	18463	130	14	0
6.6.1	mac	0	2023-01-19	12:23:23	1	1	1	experiment	1	dispFeedback_U	1000	1	6	DEV	POS	1	0.3300000000000000155	70	0.3798356115194770899	26.4026784978222330835	0	0.4903412266844746625	6	18463	130	14	0
6.6.1	mac	0	2023-01-19	12:23:23	1	1	1	experiment	2	experiment_noU	596	1	86	DEV	POS	1	0.3300000000000000155						86	21102	130	14	0
6.6.1	mac	0	2023-01-19	12:23:23	1	1	1	experiment	2	dispFeedback_noU	1000	1	86	DEV	POS	1	0.3300000000000000155	70	0.6149044964429797311	42.7425055315456319249	0	0.7334355767195661624	86	21102	130	14	0
6.6.1	mac	0	2023-01-19	12:23:23	1	1	1	experiment	2	experiment_noU	346	1	86	DEV	POS	1	0.3300000000000000155						86	23470	130	14	0
6.6.1	mac	0	2023-01-19	12:23:23	1	1	1	experiment	2	dispFeedback_noU	1000	1	86	DEV	POS	1	0.3300000000000000155	64	0.6689953060618063496	42.4884293256548204454	64	0.1350315462646613784	86	23470	194	21	7
6.6.1	mac	0	2023-01-19	12:23:23	1	1	1	experiment	2	experiment_noU	506	1	25	DEV	POS	1	0.3300000000000000155						25	26013	194	21	7
6.6.1	mac	0	2023-01-19	12:23:23	1	1	1	experiment	2	dispFeedback_noU	1000	1	25	DEV	POS	1	0.3300000000000000155	69	0.358824267434332822	24.5833388235571312919	69	0.0595120771460961734	25	26013	263	28	7
6.6.1	mac	0	2023-01-19	12:23:23	1	1	1	experiment	2	experiment_noU	372	1	1	DEV	POS	1	0.3300000000000000155						1	28429	263	28	7
6.6.1	mac	0	2023-01-19	12:23:23	1	1	1	experiment	2	dispFeedback_noU	1000	1	1	DEV	POS	1	0.3300000000000000155	67	0.5177250950324145951	34.4343119852857029173	67	0.2208448965616628679	1	28429	330	35	7
6.6.1	mac	0	2023-01-19	12:23:23	1	1	1	experiment	2	experiment_noU	419	1	82	DEV	POS	1	0.3300000000000000155						82	30892	330	35	7
6.6.1	mac	0	2023-01-19	12:23:23	1	1	1	experiment	2	dispFeedback_noU	1000	1	82	DEV	POS	1	0.3300000000000000155	65	0.6983687956078197256	45.0523320395355284518	65	0.3495231034116640378	82	30892	395	42	7
6.6.1	mac	0	2023-01-19	12:23:23	1	1	1	experiment	2	experiment_noU	577	1	7	DEV	POS	1	0.3300000000000000155						7	33516	395	42	7
6.6.1	mac	0	2023-01-19	12:23:23	1	1	1	experiment	2	dispFeedback_noU	1000	1	7	DEV	POS	1	0.3300000000000000155	62	0.4447720312720528923	27.3582849513483488124	0	0.5828169110656755691	7	33516	395	42	0
6.6.1	mac	0	2023-01-19	12:23:23	1	1	1	experiment	2	experiment_noU	392	1	90	DEV	POS	1	0.3300000000000000155						90	35931	395	42	0
6.6.1	mac	0	2023-01-19	12:23:23	1	1	1	experiment	2	dispFeedback_noU	1000	1	90	DEV	POS	1	0.3300000000000000155	66	0.6157301603688729585	40.3369774528564519755	66	0.0486221495197671841	90	35931	461	49	7
6.6.1	mac	0	2023-01-19	12:23:23	1	1	1	endscreen	3	endscreen	975	1	90	DEV	POS	1	0.3300000000000000155						90	35931	461	49	
