build	computer.platform	computer.touch	date	time	subject	group	sessionid	blockcode	blocknum	trialcode	latency	randStart	startPos	scrfunc	rtvspos	randStart	mag	freq	ev	inc	rng	startPos	fogPos1	fogPos2	chooseUncertainty1	chooseUncertainty2	uncertaintyCount1	uncertaintyCount2	blockCount	ntrials	trialCount	uncertaintyStart1	uncertaintyStart2	uncertainty_block	rt_shifted	totalPoints	totalEarnings	Earnings
6.6.1	mac	0	2023-04-13	10:34:03	1	1	1	instructions	1	instructions1	94746	1	75	IEV	POS	1						75	0	0	0	0	0	0	0	10	0	0	0	0		0	0	
6.6.1	mac	0	2023-04-13	10:34:03	1	1	1	instructions	1	displayGoodJob	10309	1	75	IEV	POS	1						75	0	0	0	0	0	0	0	10	0	0	0	0		0	0	
6.6.1	mac	0	2023-04-13	10:34:03	1	1	1	instructions	1	feedback2_5	3000	1	75	IEV	POS	1						75	0	0	0	0	0	0	0	10	0	0	0	0		0	0	0
6.6.1	mac	0	2023-04-13	10:34:03	1	1	1	instructions	1	instructions3	25790	1	75	IEV	POS	1						75	0	0	0	0	0	0	0	10	0	0	0	0		0	0	0
6.6.1	mac	0	2023-04-13	10:34:03	1	1	1	instructions	1	instructions4	2855	1	75	IEV	POS	1						75	0	0	0	0	0	0	0	10	0	0	0	0		0	0	0
6.6.1	mac	0	2023-04-13	10:34:03	1	1	1	instructions	1	sampleResponse	3000	1	75	IEV	POS	1						75	0	0	0	0	0	0	0	10	0	0	0	0	2855	0	0	0
6.6.1	mac	0	2023-04-13	10:34:03	1	1	1	instructions	1	instructions5	16461	1	75	IEV	POS	1						75	0	0	0	0	0	0	0	10	0	0	0	0	2855	0	0	0
6.6.1	mac	0	2023-04-13	10:34:03	1	1	1	instructions	1	countdown	1000	1	75	IEV	POS	1						75	0	0	0	0	0	0	0	10	0	0	0	0	2855	0	0	0
6.6.1	mac	0	2023-04-13	10:34:03	1	1	1	experiment	2	experiment_noU	852	1	81	DEV	POS	1						81	15	25	0	0	0	0	1	38	0	11	24	0	2855	0	0	0
6.6.1	mac	0	2023-04-13	10:34:03	1	1	1	experiment	2	dispFeedback_noU	1000	1	81	DEV	POS	1	71	0.6136684504429040787	43.7178718279160705151	71	0.9646924841135490203	81	15	25	0	0	0	0	1	38	1	11	24	0	1152	71	2.5	2.5
6.6.1	mac	0	2023-04-13	10:34:03	1	1	1	experiment	2	experiment_noU	1473	1	56	DEV	POS	1						56	15	25	0	0	0	0	1	38	1	11	24	0	1152	71	2.5	2.5
6.6.1	mac	0	2023-04-13	10:34:03	1	1	1	experiment	2	dispFeedback_noU	1000	1	56	DEV	POS	1	74	0.7586999551695554622	56.2125511019430845749	74	0.9026331896666980326	56	15	25	0	0	0	0	1	38	2	11	24	0	523	145	5	2.5
6.6.1	mac	0	2023-04-13	10:34:03	1	1	1	experiment	2	experiment_noU	788	1	31	DEV	POS	1						31	15	25	0	0	0	0	1	38	2	11	24	0	523	145	5	2.5
6.6.1	mac	0	2023-04-13	10:34:03	1	1	1	experiment	2	dispFeedback_noU	1000	1	31	DEV	POS	1	80	0.3123354843153612892	24.8730727400066378152	80	0.2426352270978119341	31	15	25	0	0	0	0	1	38	3	11	24	0	3588	225	8	3
6.6.1	mac	0	2023-04-13	10:34:03	1	1	1	experiment	2	experiment_noU	500	1	25	DEV	POS	1						25	15	25	0	0	0	0	1	38	3	11	24	0	3588	225	8	3
6.6.1	mac	0	2023-04-13	10:34:03	1	1	1	experiment	2	dispFeedback_noU	1000	1	25	DEV	POS	1	84	0.3593397677223568731	30.2423514249342808569	84	0.0992921041555917122	25	15	25	0	0	0	0	1	38	4	11	24	0	3000	309	11	3
6.6.1	mac	0	2023-04-13	10:34:03	1	1	1	experiment	2	experiment_noU	2910	1	63	DEV	POS	1						63	15	25	0	0	0	0	1	38	4	11	24	0	3000	309	11	3
6.6.1	mac	0	2023-04-13	10:34:03	1	1	1	experiment	2	dispFeedback_noU	1000	1	63	DEV	POS	1	80	0.4285142288488015261	34.3226842953703368266	80	0.4742814084687925202	63	15	25	0	0	0	0	1	38	5	11	24	0	2310	389	14	3
6.6.1	mac	0	2023-04-13	10:34:03	1	1	1	experiment	2	experiment_noU	3208	1	90	DEV	POS	1						90	15	25	0	0	0	0	1	38	5	11	24	0	2310	389	14	3
6.6.1	mac	0	2023-04-13	10:34:03	1	1	1	experiment	2	dispFeedback_noU	1000	1	90	DEV	POS	1	84	0.2836389863893887253	23.9571172770269669172	84	0.6994322959099505965	90	15	25	0	0	0	0	1	38	6	11	24	0	3958	473	17	3
6.6.1	mac	0	2023-04-13	10:34:03	1	1	1	experiment	2	experiment_noU	709	1	57	DEV	POS	1						57	15	25	0	0	0	0	1	38	6	11	24	0	3958	473	17	3
6.6.1	mac	0	2023-04-13	10:34:03	1	1	1	experiment	2	dispFeedback_noU	1000	1	57	DEV	POS	1	88	0.2066248576507628554	18.2122009169192295985	88	0.1379426527158223725	57	15	25	0	0	0	0	1	38	7	11	24	0	4809	561	20	3
6.6.1	mac	0	2023-04-13	10:34:03	1	1	1	experiment	2	experiment_noU	520	1	15	DEV	POS	1						15	15	25	0	0	0	0	1	38	7	11	24	0	4809	561	20	3
6.6.1	mac	0	2023-04-13	10:34:03	1	1	1	experiment	2	dispFeedback_noU	1000	1	15	DEV	POS	1	78	0.4050106590324848987	31.4982323536014341414	78	0.3725412479537867916	15	15	25	0	0	0	0	1	38	8	11	24	0	2520	639	23	3
6.6.1	mac	0	2023-04-13	10:34:03	1	1	1	experiment	2	experiment_noU	3361	1	24	DEV	POS	1						24	15	25	0	0	0	0	1	38	8	11	24	0	2520	639	23	3
6.6.1	mac	0	2023-04-13	10:34:03	1	1	1	experiment	2	dispFeedback_noU	1000	1	24	DEV	POS	1	75	0.688516887327604854	51.7800981512735418733	75	0.7376105398260081047	24	15	25	0	0	0	0	1	38	9	11	24	0	811	714	26	3
6.6.1	mac	0	2023-04-13	10:34:03	1	1	1	experiment	2	experiment_noU	3304	1	44	DEV	POS	1						44	15	25	0	0	0	0	1	38	9	11	24	0	811	714	26	3
6.6.1	mac	0	2023-04-13	10:34:03	1	1	1	experiment	2	dispFeedback_noU	1000	1	44	DEV	POS	1	82	0.5045825050508367937	41.403389415502452664	82	0.7420254935841135158	44	15	25	0	0	0	0	1	38	10	11	24	0	1754	796	29	3
6.6.1	mac	0	2023-04-13	10:34:03	1	1	1	experiment	2	experiment_noU	930	1	76	DEV	POS	1						76	15	25	0	0	0	0	1	38	10	11	24	0	1754	796	29	3
6.6.1	mac	0	2023-04-13	10:34:03	1	1	1	experiment	2	dispFeedback_noU	1000	1	76	DEV	POS	1	72	0.6502611863497691491	46.9914437303189487238	72	0.705659649499147168	76	15	25	0	0	0	0	1	38	11	11	24	1	980	868	31.5	2.5
6.6.1	mac	0	2023-04-13	10:34:03	1	1	1	experiment	2	experiment_U	4924	1	43	DEV	POS	1						43	15	25	0	0	0	0	1	38	11	11	24	1	980	868	31.5	2.5
6.6.1	mac	0	2023-04-13	10:34:03	1	1	1	experiment	2	dispFeedback_U	1000	1	43	DEV	POS	1	79	0.3327866670397765514	26.2902522287166533488	79	0.2905942488672664248	43	15	25	1	0	1	0	1	38	12	11	24	1	3324	947	34.5	3
6.6.1	mac	0	2023-04-13	10:34:03	1	1	1	experiment	2	experiment_U	851	1	43	DEV	POS	1						43	15	25	1	0	1	0	1	38	12	11	24	1	3324	947	34.5	3
6.6.1	mac	0	2023-04-13	10:34:03	1	1	1	experiment	2	dispFeedback_U	1000	1	43	DEV	POS	1	86	0.2595328840484791844	22.3388903431178995618	1	0.6365472545466728249	43	15	25	1	0	2	0	1	38	13	11	24	1	4251	948	35	0.5
6.6.1	mac	0	2023-04-13	10:34:03	1	1	1	experiment	2	experiment_U	607	1	38	DEV	POS	1						38	15	25	1	0	2	0	1	38	13	11	24	1	4251	948	35	0.5
6.6.1	mac	0	2023-04-13	10:34:03	1	1	1	experiment	2	dispFeedback_U	1000	1	38	DEV	POS	1	84	0.2993483427907495109	25.151939773663269051	1	0.8526195238466885984	38	15	25	1	0	3	0	1	38	14	11	24	1	3757	949	35.5	0.5
6.6.1	mac	0	2023-04-13	10:34:03	1	1	1	experiment	2	experiment_U	1301	1	82	DEV	POS	1						82	15	25	1	0	3	0	1	38	14	11	24	1	3757	949	35.5	0.5
6.6.1	mac	0	2023-04-13	10:34:03	1	1	1	experiment	2	dispFeedback_U	1000	1	82	DEV	POS	1	74	0.5211758631985973222	38.3720735098045224731	1	0.5882585327113649676	82	15	25	1	0	4	0	1	38	15	11	24	1	1651	950	36	0.5
6.6.1	mac	0	2023-04-13	10:34:03	1	1	1	experiment	2	experiment_U	1247	1	16	DEV	POS	1						16	15	25	1	0	4	0	1	38	15	11	24	1	1651	950	36	0.5
6.6.1	mac	0	2023-04-13	10:34:03	1	1	1	experiment	2	dispFeedback_U	1000	1	16	DEV	POS	1	81	0.3349188835487599825	27.1059878544549128776	1	0.702394151059536731	16	15	25	2	0	5	0	1	38	16	11	24	1	3297	951	36.5	0.5
6.6.1	mac	0	2023-04-13	10:34:03	1	1	1	experiment	2	experiment_U	956	1	43	DEV	POS	1						43	15	25	2	0	5	0	1	38	16	11	24	1	3297	951	36.5	0.5
6.6.1	mac	0	2023-04-13	10:34:03	1	1	1	experiment	2	dispFeedback_U	1000	1	43	DEV	POS	1	85	0.2503812830730952066	21.3533444218425820793	1	0.4115167030625782596	43	15	25	2	0	6	0	1	38	17	11	24	1	4356	952	37	0.5
6.6.1	mac	0	2023-04-13	10:34:03	1	1	1	experiment	2	experiment_U	3315	1	18	DEV	POS	1						18	15	25	2	0	6	0	1	38	17	11	24	1	4356	952	37	0.5
6.6.1	mac	0	2023-04-13	10:34:03	1	1	1	experiment	2	dispFeedback_U	1000	1	18	DEV	POS	1	74	0.7735482139769223053	56.9368334693849362793	74	0.167130438184163177	18	15	25	2	0	7	0	1	38	18	11	24	1	465	1026	39.5	2.5
6.6.1	mac	0	2023-04-13	10:34:03	1	1	1	experiment	2	experiment_U	1485	1	63	DEV	POS	1						63	15	25	2	0	7	0	1	38	18	11	24	1	465	1026	39.5	2.5
6.6.1	mac	0	2023-04-13	10:34:03	1	1	1	experiment	2	dispFeedback_U	1000	1	63	DEV	POS	1	79	0.6714898768863379885	52.8351044726111638283	79	0.1726546946849335795	63	15	25	2	0	8	0	1	38	19	11	24	1	885	1105	42.5	3
6.6.1	mac	0	2023-04-13	10:34:03	1	1	1	experiment	2	experiment_U	3487	1	32	DEV	POS	1						32	15	25	2	0	8	0	1	38	19	11	24	1	885	1105	42.5	3
6.6.1	mac	0	2023-04-13	10:34:03	1	1	1	experiment	2	dispFeedback_U	1000	1	32	DEV	POS	1	72	0.5770046868761573577	41.6553151681583955224	72	0.5174802251899336403	32	15	25	2	0	9	0	1	38	20	11	24	1	1337	1177	45	2.5
6.6.1	mac	0	2023-04-13	10:34:03	1	1	1	experiment	2	experiment_U	499	1	75	DEV	POS	1						75	15	25	2	0	9	0	1	38	20	11	24	1	1337	1177	45	2.5
6.6.1	mac	0	2023-04-13	10:34:03	1	1	1	experiment	2	dispFeedback_U	1000	1	75	DEV	POS	1	74	0.7648164018616757653	56.5141436230916056616	1	0.9785691806996634767	75	15	25	2	0	10	0	1	38	21	11	24	1	499	1178	45.5	0.5
6.6.1	mac	0	2023-04-13	10:34:03	1	1	1	experiment	2	experiment_U	1614	1	73	DEV	POS	1						73	15	25	2	0	10	0	1	38	21	11	24	1	499	1178	45.5	0.5
6.6.1	mac	0	2023-04-13	10:34:03	1	1	1	experiment	2	dispFeedback_U	1000	1	73	DEV	POS	1	77	0.5445517539565634113	41.9444044142925633878	1	0.8647959851345038418	73	15	25	2	0	11	0	1	38	22	11	24	1	1514	1179	46	0.5
6.6.1	mac	0	2023-04-13	10:34:03	1	1	1	experiment	2	experiment_U	1661	1	25	DEV	POS	1						25	15	25	2	0	11	0	1	38	22	11	24	1	1514	1179	46	0.5
6.6.1	mac	0	2023-04-13	10:34:03	1	1	1	experiment	2	dispFeedback_U	1000	1	25	DEV	POS	1	80	0.267139688367979744	21.341788253270820519	1	0.721960324729317926	25	15	25	2	0	12	0	1	38	23	11	24	1	4161	1180	46.5	0.5
6.6.1	mac	0	2023-04-13	10:34:03	1	1	1	experiment	2	experiment_U	1833	1	4	DEV	POS	1						4	15	25	2	0	12	0	1	38	23	11	24	1	4161	1180	46.5	0.5
6.6.1	mac	0	2023-04-13	10:34:03	1	1	1	experiment	2	dispFeedback_U	1000	1	4	DEV	POS	1	85	0.3360288910190091238	28.5281491465015442088	1	0.6028265973093981378	4	15	25	3	0	13	0	1	38	24	11	24	1	3283	1181	47	0.5
6.6.1	mac	0	2023-04-13	10:34:03	1	1	1	experiment	2	experiment_U	559	1	7	DEV	POS	1						7	15	25	3	0	13	0	1	38	24	11	24	1	3283	1181	47	0.5
6.6.1	mac	0	2023-04-13	10:34:03	1	1	1	experiment	2	dispFeedback_U	1000	1	7	DEV	POS	1	77	0.4470601826213578267	34.236884471554610343	1	0.554346222093875074	7	15	25	3	0	14	0	1	38	25	11	24	1	2159	1182	47.5	0.5
6.6.1	mac	0	2023-04-13	10:34:03	1	1	1	experiment	2	experiment_U	2487	1	15	DEV	POS	1						15	15	25	3	0	14	0	1	38	25	11	24	1	2159	1182	47.5	0.5
6.6.1	mac	0	2023-04-13	10:34:03	1	1	1	experiment	2	dispFeedback_U	1000	1	15	DEV	POS	1	86	0.2384888211393115798	20.4001209670592160705	1	0.8598921182239176453	15	15	25	3	0	15	0	1	38	26	11	24	1	4487	1183	48	0.5
6.6.1	mac	0	2023-04-13	10:34:03	1	1	1	experiment	2	experiment_U	1633	1	59	DEV	POS	1						59	15	25	3	0	15	0	1	38	26	11	24	1	4487	1183	48	0.5
6.6.1	mac	0	2023-04-13	10:34:03	1	1	1	experiment	2	dispFeedback_U	1000	1	59	DEV	POS	1	73	0.683410416573483559	50.1280302139873938927	73	0.4702906458336605366	59	15	25	3	0	16	0	1	38	27	11	24	1	833	1256	50.5	2.5
6.6.1	mac	0	2023-04-13	10:34:03	1	1	1	experiment	2	experiment_U	542	1	3	DEV	POS	1						3	15	25	3	0	16	0	1	38	27	11	24	1	833	1256	50.5	2.5
6.6.1	mac	0	2023-04-13	10:34:03	1	1	1	experiment	2	dispFeedback_U	1000	1	3	DEV	POS	1	79	0.4763969167172333874	37.5367016940954485449	79	0.3278399767186120362	3	15	25	3	0	17	0	1	38	28	11	24	1	1942	1335	53.5	3
6.6.1	mac	0	2023-04-13	10:34:03	1	1	1	experiment	2	experiment_U	1367	1	65	DEV	POS	1						65	15	25	3	0	17	0	1	38	28	11	24	1	1942	1335	53.5	3
6.6.1	mac	0	2023-04-13	10:34:03	1	1	1	experiment	2	dispFeedback_U	1000	1	65	DEV	POS	1	73	0.6755923576346362092	49.0271850451510431412	1	0.9091233336155124523	65	15	25	3	0	18	0	1	38	29	11	24	1	867	1336	54	0.5
6.6.1	mac	0	2023-04-13	10:34:03	1	1	1	experiment	2	experiment_U	447	1	34	DEV	POS	1						34	15	25	3	0	18	0	1	38	29	11	24	1	867	1336	54	0.5
6.6.1	mac	0	2023-04-13	10:34:03	1	1	1	experiment	2	dispFeedback_U	1000	1	34	DEV	POS	1	83	0.32707101179375897	27.205800375881413089	1	0.9631949881937342806	34	15	25	4	0	19	0	1	38	30	11	24	2	3397	1337	54.5	0.5
6.6.1	mac	0	2023-04-13	10:34:03	1	1	1	experiment	2	experiment_U	1564	1	11	DEV	POS	1						11	15	25	4	0	19	0	1	38	30	11	24	2	3397	1337	54.5	0.5
6.6.1	mac	0	2023-04-13	10:34:03	1	1	1	experiment	2	dispFeedback_U	1000	1	11	DEV	POS	1	83	0.3296466328690775827	27.3933813281034446163	1	0.5675228437333188491	11	15	25	4	0	19	1	1	38	31	11	24	2	3364	1338	55	0.5
6.6.1	mac	0	2023-04-13	10:34:03	1	1	1	experiment	2	experiment_U	1452	1	23	DEV	POS	1						23	15	25	4	0	19	1	1	38	31	11	24	2	3364	1338	55	0.5
6.6.1	mac	0	2023-04-13	10:34:03	1	1	1	experiment	2	dispFeedback_U	1000	1	23	DEV	POS	1	79	0.2919791913795763971	23.1344514353591215183	1	0.7921068716775875318	23	15	25	4	0	19	2	1	38	32	11	24	2	3852	1339	55.5	0.5
6.6.1	mac	0	2023-04-13	10:34:03	1	1	1	experiment	2	experiment_U	1361	1	61	DEV	POS	1						61	15	25	4	0	19	2	1	38	32	11	24	2	3852	1339	55.5	0.5
6.6.1	mac	0	2023-04-13	10:34:03	1	1	1	experiment	2	dispFeedback_U	1000	1	61	DEV	POS	1	71	0.7243131527679537163	51.5419428918843109955	71	0.7040601949449768471	61	15	25	4	0	19	3	1	38	33	11	24	2	661	1410	58	2.5
6.6.1	mac	0	2023-04-13	10:34:03	1	1	1	experiment	2	experiment_U	4697	1	96	DEV	POS	1						96	15	25	4	0	19	3	1	38	33	11	24	2	661	1410	58	2.5
6.6.1	mac	0	2023-04-13	10:34:03	1	1	1	experiment	2	dispFeedback_U	1000	1	96	DEV	POS	1	77	0.7035829119462376768	54.0158031123601247714	1	0.8388097399936080834	96	15	25	4	0	19	4	1	38	34	11	24	2	747	1411	58.5	0.5
6.6.1	mac	0	2023-04-13	10:34:03	1	1	1	experiment	2	experiment_U	619	1	44	DEV	POS	1						44	15	25	4	0	19	4	1	38	34	11	24	2	747	1411	58.5	0.5
6.6.1	mac	0	2023-04-13	10:34:03	1	1	1	experiment	2	dispFeedback_U	1000	1	44	DEV	POS	1	85	0.2747181825823445944	23.2683331446377650309	1	0.6149324056727188959	44	15	25	4	0	19	5	1	38	35	11	24	2	4069	1412	59	0.5
6.6.1	mac	0	2023-04-13	10:34:03	1	1	1	experiment	2	experiment_U	817	1	78	DEV	POS	1						78	15	25	4	0	19	5	1	38	35	11	24	2	4069	1412	59	0.5
6.6.1	mac	0	2023-04-13	10:34:03	1	1	1	experiment	2	dispFeedback_U	1000	1	78	DEV	POS	1	76	0.6531238369698658675	49.7600740317486014419	1	0.97617882047225224	78	15	25	4	0	19	6	1	38	36	11	24	2	967	1413	59.5	0.5
6.6.1	mac	0	2023-04-13	10:34:03	1	1	1	experiment	2	experiment_U	511	1	11	DEV	POS	1						11	15	25	4	0	19	6	1	38	36	11	24	2	967	1413	59.5	0.5
6.6.1	mac	0	2023-04-13	10:34:03	1	1	1	experiment	2	dispFeedback_U	1000	1	11	DEV	POS	1	83	0.4283961989826198247	35.5998420664250971868	1	0.6410312316475974548	11	15	25	4	1	19	7	1	38	37	11	24	2	2311	1414	60	0.5
6.6.1	mac	0	2023-04-13	10:34:03	1	1	1	experiment	2	experiment_U	1209	1	69	DEV	POS	1						69	15	25	4	1	19	7	1	38	37	11	24	2	2311	1414	60	0.5
6.6.1	mac	0	2023-04-13	10:34:03	1	1	1	experiment	2	dispFeedback_U	1000	1	69	DEV	POS	1	74	0.6660594431337047983	49.1776207643688039184	1	0.9697950398479111556	69	15	25	4	1	19	8	1	38	38	11	24	2	909	1415	60.5	0.5
6.6.1	mac	0	2023-04-13	10:34:03	1	1	1	experiment	3	experiment_noU	663	1	55	IEV	POS	1						55	5	1	0	0	0	0	2	41	0	6	29	2	909	1415	60.5	0.5
6.6.1	mac	0	2023-04-13	10:34:03	1	1	1	experiment	3	dispFeedback_noU	1000	1	55	IEV	POS	1	235	0.246144267678255424	57.7355281636584152238	235	0.431144971966544388	55	5	1	0	0	0	0	2	41	1	6	29	0	4663	1650	65.5	5
6.6.1	mac	0	2023-04-13	10:34:03	1	1	1	experiment	3	experiment_noU	1962	1	31	IEV	POS	1						31	5	1	0	0	0	0	2	41	1	6	29	0	4663	1650	65.5	5
6.6.1	mac	0	2023-04-13	10:34:03	1	1	1	experiment	3	dispFeedback_noU	1000	1	31	IEV	POS	1	247	0.2278977142572949921	56.2326983724367366335	247	0.5309913788295796966	31	5	1	0	0	0	0	2	41	2	6	29	0	4762	1897	70.5	5
6.6.1	mac	0	2023-04-13	10:34:03	1	1	1	experiment	3	experiment_noU	362	1	39	IEV	POS	1						39	5	1	0	0	0	0	2	41	2	6	29	0	4762	1897	70.5	5
6.6.1	mac	0	2023-04-13	10:34:03	1	1	1	experiment	3	dispFeedback_noU	1000	1	39	IEV	POS	1	107	0.4679546491243337103	49.8906344476542784605	107	0.8485294300710152227	39	5	1	0	0	0	0	2	41	3	6	29	0	3562	2004	74.5	4
6.6.1	mac	0	2023-04-13	10:34:03	1	1	1	experiment	3	experiment_noU	1242	1	0	IEV	POS	1						0	5	1	0	0	0	0	2	41	3	6	29	0	3562	2004	74.5	4
6.6.1	mac	0	2023-04-13	10:34:03	1	1	1	experiment	3	dispFeedback_noU	1000	1	0	IEV	POS	1	59	0.6799982819028833614	40.3547579205960431636	59	0.6350533605169162987	0	5	1	0	0	0	0	2	41	4	6	29	0	2492	2063	76.5	2
6.6.1	mac	0	2023-04-13	10:34:03	1	1	1	experiment	3	experiment_noU	583	1	58	IEV	POS	1						58	5	1	0	0	0	0	2	41	4	6	29	0	2492	2063	76.5	2
6.6.1	mac	0	2023-04-13	10:34:03	1	1	1	experiment	3	dispFeedback_noU	1000	1	58	IEV	POS	1	245	0.2332017934320786412	57.0331124647627234481	245	0.7779357593455202835	58	5	1	0	0	0	0	2	41	5	6	29	0	4733	2308	81.5	5
6.6.1	mac	0	2023-04-13	10:34:03	1	1	1	experiment	3	experiment_noU	4493	1	48	IEV	POS	1						48	5	1	0	0	0	0	2	41	5	6	29	0	4733	2308	81.5	5
6.6.1	mac	0	2023-04-13	10:34:03	1	1	1	experiment	3	dispFeedback_noU	1000	1	48	IEV	POS	1	80	0.554672778360578822	44.1185267514259322752	80	0.3908487468470932535	48	5	1	0	0	0	0	2	41	6	6	29	1	3143	2388	84.5	3
6.6.1	mac	0	2023-04-13	10:34:03	1	1	1	experiment	3	experiment_U	568	1	47	IEV	POS	1						47	5	1	0	0	0	0	2	41	6	6	29	1	3143	2388	84.5	3
6.6.1	mac	0	2023-04-13	10:34:03	1	1	1	experiment	3	dispFeedback_U	1000	1	47	IEV	POS	1	156	0.3425876006429713905	53.4642100549909145002	1	0.9094202366912318425	47	5	1	1	0	1	0	2	41	7	6	29	1	4168	2389	85	0.5
6.6.1	mac	0	2023-04-13	10:34:03	1	1	1	experiment	3	experiment_U	1566	1	6	IEV	POS	1						6	5	1	1	0	1	0	2	41	7	6	29	1	4168	2389	85	0.5
6.6.1	mac	0	2023-04-13	10:34:03	1	1	1	experiment	3	dispFeedback_U	1000	1	6	IEV	POS	1	77	0.5601598433476344674	43.2549055771934476411	1	0.8320416404940285116	6	5	1	2	0	2	0	2	41	8	6	29	1	3116	2390	85.5	0.5
6.6.1	mac	0	2023-04-13	10:34:03	1	1	1	experiment	3	experiment_U	1597	1	81	IEV	POS	1						81	5	1	2	0	2	0	2	41	8	6	29	1	3116	2390	85.5	0.5
6.6.1	mac	0	2023-04-13	10:34:03	1	1	1	experiment	3	dispFeedback_U	1000	1	81	IEV	POS	1	40	0.7750979772002721813	31.0240225770658000215	40	0.5553828085668810477	81	5	1	3	0	3	0	2	41	9	6	29	1	1897	2430	87	1.5
6.6.1	mac	0	2023-04-13	10:34:03	1	1	1	experiment	3	experiment_U	2252	1	89	IEV	POS	1						89	5	1	3	0	3	0	2	41	9	6	29	1	1897	2430	87	1.5
6.6.1	mac	0	2023-04-13	10:34:03	1	1	1	experiment	3	dispFeedback_U	1000	1	89	IEV	POS	1	73	0.5930673908655833548	43.1094358078277579693	1	0.8720581591762738283	89	5	1	4	0	4	0	2	41	10	6	29	0	2952	2431	87.5	0.5
6.6.1	mac	0	2023-04-13	10:34:03	1	1	1	experiment	3	experiment_noU	2192	1	11	IEV	POS	1						11	5	1	4	0	4	0	2	41	10	6	29	0	2952	2431	87.5	0.5
6.6.1	mac	0	2023-04-13	10:34:03	1	1	1	experiment	3	dispFeedback_noU	1000	1	11	IEV	POS	1	143	0.3784991718550364537	54.0877586326946868667	143	0.7087143451694200014	11	5	1	4	0	4	0	2	41	11	6	29	0	3992	2574	92.5	5
6.6.1	mac	0	2023-04-13	10:34:03	1	1	1	experiment	3	experiment_noU	3174	1	89	IEV	POS	1						89	5	1	4	0	4	0	2	41	11	6	29	0	3992	2574	92.5	5
6.6.1	mac	0	2023-04-13	10:34:03	1	1	1	experiment	3	dispFeedback_noU	1000	1	89	IEV	POS	1	128	0.4028828479127631867	51.6651984977426366186	128	0.9150741537835156425	89	5	1	4	0	4	0	2	41	12	6	29	0	3874	2702	97	4.5
6.6.1	mac	0	2023-04-13	10:34:03	1	1	1	experiment	3	experiment_noU	1925	1	5	IEV	POS	1						5	5	1	4	0	4	0	2	41	12	6	29	0	3874	2702	97	4.5
6.6.1	mac	0	2023-04-13	10:34:03	1	1	1	experiment	3	dispFeedback_noU	1000	1	5	IEV	POS	1	100	0.4965337915690634651	49.6164867238945959116	100	0.9344353657063179108	5	5	1	4	0	4	0	2	41	13	6	29	0	3425	2802	100.5	3.5
6.6.1	mac	0	2023-04-13	10:34:03	1	1	1	experiment	3	experiment_noU	1383	1	30	IEV	POS	1						30	5	1	4	0	4	0	2	41	13	6	29	0	3425	2802	100.5	3.5
6.6.1	mac	0	2023-04-13	10:34:03	1	1	1	experiment	3	dispFeedback_noU	1000	1	30	IEV	POS	1	150	0.3496768827283059933	52.5242375592938941509	150	0.743310528514746216	30	5	1	4	0	4	0	2	41	14	6	29	0	4133	2952	105.5	5
6.6.1	mac	0	2023-04-13	10:34:03	1	1	1	experiment	3	experiment_noU	1182	1	81	IEV	POS	1						81	5	1	4	0	4	0	2	41	14	6	29	0	4133	2952	105.5	5
6.6.1	mac	0	2023-04-13	10:34:03	1	1	1	experiment	3	dispFeedback_noU	1000	1	81	IEV	POS	1	28	0.8263416673238141996	22.8347285042799121868	28	0.2152806909790450363	81	5	1	4	0	4	0	2	41	15	6	29	0	1482	2980	106.5	1
6.6.1	mac	0	2023-04-13	10:34:03	1	1	1	experiment	3	experiment_noU	1069	1	35	IEV	POS	1						35	5	1	4	0	4	0	2	41	15	6	29	0	1482	2980	106.5	1
6.6.1	mac	0	2023-04-13	10:34:03	1	1	1	experiment	3	dispFeedback_noU	1000	1	35	IEV	POS	1	146	0.362710388846226861	53.1312535292668144393	146	0.116080517907645675	35	5	1	4	0	4	0	2	41	16	6	29	0	4069	3126	111.5	5
6.6.1	mac	0	2023-04-13	10:34:03	1	1	1	experiment	3	experiment_noU	1058	1	35	IEV	POS	1						35	5	1	4	0	4	0	2	41	16	6	29	0	4069	3126	111.5	5
6.6.1	mac	0	2023-04-13	10:34:03	1	1	1	experiment	3	dispFeedback_noU	1000	1	35	IEV	POS	1	150	0.3649590803671255435	54.878124684644745912	150	0.2009723608384310078	35	5	1	4	0	4	0	2	41	17	6	29	0	4058	3276	116.5	5
6.6.1	mac	0	2023-04-13	10:34:03	1	1	1	experiment	3	experiment_noU	615	1	63	IEV	POS	1						63	5	1	4	0	4	0	2	41	17	6	29	0	4058	3276	116.5	5
6.6.1	mac	0	2023-04-13	10:34:03	1	1	1	experiment	3	dispFeedback_noU	1000	1	63	IEV	POS	1	13	0.8999726375911539789	11.4257207112223344581	13	0.5234147257924579577	63	5	1	4	0	4	0	2	41	18	6	29	0	15	3289	117	0.5
6.6.1	mac	0	2023-04-13	10:34:03	1	1	1	experiment	3	experiment_noU	1597	1	18	IEV	POS	1						18	5	1	4	0	4	0	2	41	18	6	29	0	15	3289	117	0.5
6.6.1	mac	0	2023-04-13	10:34:03	1	1	1	experiment	3	dispFeedback_noU	1000	1	18	IEV	POS	1	116	0.4293086859760796292	49.7563189551675222333	116	0.5674774960073357688	18	5	1	4	0	4	0	2	41	19	6	29	0	3747	3405	121	4
6.6.1	mac	0	2023-04-13	10:34:03	1	1	1	experiment	3	experiment_noU	1099	1	0	IEV	POS	1						0	5	1	4	0	4	0	2	41	19	6	29	0	3747	3405	121	4
6.6.1	mac	0	2023-04-13	10:34:03	1	1	1	experiment	3	dispFeedback_noU	1000	1	0	IEV	POS	1	50	0.7049011043967317036	35.1607205920285537104	50	0.6660992604834258257	0	5	1	4	0	4	0	2	41	20	6	29	0	2349	3455	123	2
6.6.1	mac	0	2023-04-13	10:34:03	1	1	1	experiment	3	experiment_noU	781	1	41	IEV	POS	1						41	5	1	4	0	4	0	2	41	20	6	29	0	2349	3455	123	2
6.6.1	mac	0	2023-04-13	10:34:03	1	1	1	experiment	3	dispFeedback_noU	1000	1	41	IEV	POS	1	150	0.3602600393587981342	53.9361285044029159508	150	0.7657444732649588692	41	5	1	4	0	4	0	2	41	21	6	29	0	4081	3605	128	5
6.6.1	mac	0	2023-04-13	10:34:03	1	1	1	experiment	3	experiment_noU	1324	1	67	IEV	POS	1						67	5	1	4	0	4	0	2	41	21	6	29	0	4081	3605	128	5
6.6.1	mac	0	2023-04-13	10:34:03	1	1	1	experiment	3	dispFeedback_noU	1000	1	67	IEV	POS	1	27	0.8733115308300807289	23.9529192155877979076	27	0.5223155085747864801	67	5	1	4	0	4	0	2	41	22	6	29	0	924	3632	129	1
6.6.1	mac	0	2023-04-13	10:34:03	1	1	1	experiment	3	experiment_noU	1750	1	74	IEV	POS	1						74	5	1	4	0	4	0	2	41	22	6	29	0	924	3632	129	1
6.6.1	mac	0	2023-04-13	10:34:03	1	1	1	experiment	3	dispFeedback_noU	1000	1	74	IEV	POS	1	40	0.8011075260072061388	31.8652178499791709498	40	0.2413535263019971344	74	5	1	4	0	4	0	2	41	23	6	29	0	1700	3672	130.5	1.5
6.6.1	mac	0	2023-04-13	10:34:03	1	1	1	experiment	3	experiment_noU	6500	1	20	IEV	POS	1						20	5	1	4	0	4	0	2	41	23	6	29	0	1700	3672	130.5	1.5
6.6.1	mac	0	2023-04-13	10:34:03	1	1	1	experiment	3	dispFeedback_noU	1000	1	20	IEV	POS	1	119	0.4286829390009177509	51.0692819470578811547	119	0.0873576807992900023	20	5	1	4	0	4	0	2	41	24	6	29	0	3750	3791	130.5	0
6.6.1	mac	0	2023-04-13	10:34:03	1	1	1	experiment	3	experiment_noU	6500	1	54	IEV	POS	1						54	5	1	4	0	4	0	2	41	24	6	29	0	3750	3791	130.5	0
6.6.1	mac	0	2023-04-13	10:34:03	1	1	1	experiment	3	dispFeedback_noU	1000	1	54	IEV	POS	1	17	0.8940034989403390364	15.262281415428221365	17	0.2314651683511829983	54	5	1	4	0	4	0	2	41	25	6	29	0	450	3808	130.5	0
6.6.1	mac	0	2023-04-13	10:34:03	1	1	1	experiment	3	experiment_noU	6500	1	11	IEV	POS	1						11	5	1	4	0	4	0	2	41	25	6	29	0	450	3808	130.5	0
6.6.1	mac	0	2023-04-13	10:34:03	1	1	1	experiment	3	dispFeedback_noU	1000	1	11	IEV	POS	1	93	0.5224614300046996895	48.44584751584886817	93	0.4569638442380735133	11	5	1	4	0	4	0	2	41	26	6	29	0	3300	3901	130.5	0
6.6.1	mac	0	2023-04-13	10:34:03	1	1	1	experiment	3	experiment_noU	6500	1	20	IEV	POS	1						20	5	1	4	0	4	0	2	41	26	6	29	0	3300	3901	130.5	0
6.6.1	mac	0	2023-04-13	10:34:03	1	1	1	experiment	3	dispFeedback_noU	1000	1	20	IEV	POS	1	120	0.4286829390009177509	51.4979648860588028469	120	0.7473618513316292455	20	5	1	4	0	4	0	2	41	27	6	29	0	3750	4021	130.5	0
6.6.1	mac	0	2023-04-13	10:34:03	1	1	1	experiment	3	experiment_noU	6500	1	14	IEV	POS	1						14	5	1	4	0	4	0	2	41	27	6	29	0	3750	4021	130.5	0
6.6.1	mac	0	2023-04-13	10:34:03	1	1	1	experiment	3	dispFeedback_noU	1000	1	14	IEV	POS	1	96	0.4913278441672321861	47.3864823443754090704	96	0.3501150066382519577	14	5	1	4	0	4	0	2	41	28	6	29	0	3450	4117	130.5	0
6.6.1	mac	0	2023-04-13	10:34:03	1	1	1	experiment	3	experiment_noU	4623	1	90	IEV	POS	1						90	5	1	4	0	4	0	2	41	28	6	29	0	3450	4117	130.5	0
