build	computer.platform	computer.touch	date	time	subject	group	sessionid	blockcode	blocknum	trialcode	preClockFreezeBlock	list.preClockFreeze.currentvalue	latency	list.ISI.currentvalue	list.ITI.currentvalue	trial.instructions5_1.response	trial.instructions5_2.response	startPos	scrfunc	rtvspos	randStart	mag	freq	ev	inc	inc_rg	rng	fogPos1	fogPos3	fogPos5	fogPos_out	list.wind_size.currentvalue	windPos2	windPos4	windPos6	windPos_out	chooseFog1	chooseWind2	chooseFog3	chooseWind4	chooseFog5	chooseWind6	choose_unc_att1	choose_unc_att_out1	choose_unc_att2	choose_unc_att_out2	choose_unc_att3	choose_unc_att_out3	choose_unc_att4	choose_unc_att_out4	unc_att_count1	unc_att_count_out1	unc_att_count2	unc_att_count_out2	unc_att_count3	unc_att_count_out3	unc_att_count4	unc_att_count_out4	unc_att_count5	unc_att_count_out5	unc_att_count6	unc_att_count_out6	chooseAttentionalControl	chooseUncertainty	blockCount	ntrials	trialCount	meta_trialCount	attentional_control	local_uncertainty	unc_att_start1	unc_att_start2	unc_att_start3	unc_att_start4	unc_att_start5	unc_att_start6	unc_att_block	list.rt_0.currentindex	rt_shifted	pos_shifted	totalPoints	totalEarnings	Earnings
6.6.1	mac	0	2023-09-15	19:31:40	1	1	1	experiment	1	experiment_noU	2	750	505	250	340			97	dynamic	POS	1							2	45	40			30	50	1		0	0	0	0	0	0	0	0	0	0	0	0	0	0	0	0	0	0	0	0	0	0	0	0	0	0	0	0	1		0	0	cloud	wind	7	16	25	36	0	0	0	0			0	0	
6.6.1	mac	0	2023-09-15	19:31:40	1	1	1	experiment	1	dispFeedback_noU	2	750	1000	250	340			97	dynamic	POS	1		0.6999999999999999556				0.2196791426324469776	2	45	40			30	50	1		0	0	0	0	0	0	0	0	0	0	0	0	0	0	0	0	0	0	0	0	0	0	0	0	0	0	0	0	1		0	0	cloud	wind	7	16	25	36	0	0	0	0	1605	115.5600000000000022737		0	
6.6.1	mac	0	2023-09-15	19:31:40	1	1	1	experiment	1	experiment_noU	2	750	560	520	450			21	dynamic	POS	1							2	45	40			30	50	1		0	0	0	0	0	0	0	0	0	0	0	0	0	0	0	0	0	0	0	0	0	0	0	0	0	0	0	0	1		1	0	cloud	wind	7	16	25	36	0	0	0	1	1605	115.5600000000000022737		0	
6.6.1	mac	0	2023-09-15	19:31:40	1	1	1	experiment	1	dispFeedback_noU	2	750	1000	520	450			21	dynamic	POS	1	13	0.6999999999999999556	9.0999999999999996447	13	14	0.1364139397946218801	2	45	40			30	50	1		0	0	0	0	0	0	0	0	0	0	0	0	0	0	0	0	0	0	0	0	0	0	0	0	0	0	0	0	1		1	0	cloud	wind	7	16	25	36	0	0	0	1	2860	205.9199999999999874944		0	14
6.6.1	mac	0	2023-09-15	19:31:40	1	1	1	experiment	1	experiment_noU	2	750	1082	260	110			19	dynamic	POS	1					14		2	45	40			30	50	1		0	0	0	0	0	0	0	0	0	0	0	0	0	0	0	0	0	0	0	0	0	0	0	0	0	0	0	0	1		2	0	cloud	wind	7	16	25	36	0	0	0	2	2860	205.9199999999999874944		0	14
6.6.1	mac	0	2023-09-15	19:31:40	1	1	1	experiment	1	dispFeedback_noU	2	750	1000	260	110			19	dynamic	POS	1	0	0.6999999999999999556	0	0		0.5378036211565611069	2	45	40			30	50	1		0	0	0	0	0	0	0	0	0	0	0	0	0	0	0	0	0	0	0	0	0	0	0	0	0	0	0	0	1		2	0	cloud	wind	7	16	25	36	0	0	0	2	3282	236.3040000000000020464		0	
6.6.1	mac	0	2023-09-15	19:31:40	1	1	1	experiment	1	experiment_noU	2	750	580	550	200			60	dynamic	POS	1							2	45	40			30	50	1		0	0	0	0	0	0	0	0	0	0	0	0	0	0	0	0	0	0	0	0	0	0	0	0	0	0	0	0	1		3	0	cloud	wind	7	16	25	36	0	0	0	3	3282	236.3040000000000020464		0	
6.6.1	mac	0	2023-09-15	19:31:40	1	1	1	experiment	1	dispFeedback_noU	2	750	1000	550	200			60	dynamic	POS	1	144	0.6999999999999999556	100.7999999999999971578	1	10	0.8311445666083936423	2	45	40			30	50	1		0	0	0	0	0	0	0	0	0	0	0	0	0	0	0	0	0	0	0	0	0	0	0	0	0	0	0	0	1		3	0	cloud	wind	7	16	25	36	0	0	0	3	4830	347.7599999999999909051		0	10
6.6.1	mac	0	2023-09-15	19:31:40	1	1	1	experiment	1	experiment_noU	2	750	361	280	230			89	dynamic	POS	1					10		2	45	40			30	50	1		0	0	0	0	0	0	0	0	0	0	0	0	0	0	0	0	0	0	0	0	0	0	0	0	0	0	0	0	1		4	0	cloud	wind	7	16	25	36	0	0	0	4	4830	347.7599999999999909051		0	10
6.6.1	mac	0	2023-09-15	19:31:40	1	1	1	experiment	1	dispFeedback_noU	2	750	1000	280	230			89	dynamic	POS	1	29	0.6999999999999999556	20.2999999999999971578	29	26	0.4858338766465508107	2	45	40			30	50	1		0	0	0	0	0	0	0	0	0	0	0	0	0	0	0	0	0	0	0	0	0	0	0	0	0	0	0	0	1		4	0	cloud	wind	7	16	25	36	0	0	0	4	1061	76.3919999999999959073		0	26
6.6.1	mac	0	2023-09-15	19:31:40	1	1	1	experiment	1	experiment_noU	2	750	670	200	100			94	dynamic	POS	1					26		2	45	40			30	50	1		0	0	0	0	0	0	0	0	0	0	0	0	0	0	0	0	0	0	0	0	0	0	0	0	0	0	0	0	1		5	0	cloud	wind	7	16	25	36	0	0	0	5	1061	76.3919999999999959073		0	26
6.6.1	mac	0	2023-09-15	19:31:40	1	1	1	experiment	1	dispFeedback_noU	2	750	1000	200	100			94	dynamic	POS	1	32	0.6999999999999999556	22.3999999999999985789	32	31	0.2360291819172047889	2	45	40			30	50	1		0	0	0	0	0	0	0	0	0	0	0	0	0	0	0	0	0	0	0	0	0	0	0	0	0	0	0	0	1		5	0	cloud	wind	7	16	25	36	0	0	0	5	1620	116.6400000000000005684		0	31
6.6.1	mac	0	2023-09-15	19:31:40	1	1	1	experiment	1	experiment_U	2	750	543	350	430			77	dynamic	POS	1					31		2	45	40	330	30pct	30	50	1		0	0	0	0	0	0	0	0	0	0	0	0	0	0	0	1	0	0	0	0	0	0	0	0	0	0	0	0	1		7	1	cloud	wind	7	16	25	36	0	0	1	6	1620	116.6400000000000005684		0	31
6.6.1	mac	0	2023-09-15	19:31:40	1	1	1	experiment	1	dispFeedback_U	2	750	1000	350	430			77	dynamic	POS	1	61	0.6999999999999999556	42.6999999999999957367	61	55	0.4384193393491253588	2	45	40	330	30pct	30	50	1		0	0	0	0	0	0	0	0	0	0	0	0	0	0	1	1	0	0	0	0	0	0	0	0	0	0	0	0	1		7	1	cloud	wind	7	16	25	36	0	0	1	6	643	46.2959999999999993747		0	55
6.6.1	mac	0	2023-09-15	19:31:40	1	1	1	experiment	1	experiment_U	2	750	406	380	480			36	dynamic	POS	1					55		2	45	40	330	30pct	30	50	1		0	0	0	0	0	0	0	0	0	0	0	0	0	0	1	2	0	0	0	0	0	0	0	0	0	0	0	0	1		9	2	cloud	wind	7	16	25	36	0	0	1	7	643	46.2959999999999993747		0	55
6.6.1	mac	0	2023-09-15	19:31:40	1	1	1	experiment	1	dispFeedback_U	2	750	1000	380	480			36	dynamic	POS	1	-6	0.6999999999999999556	-4.1999999999999992895	-6		0.0923421145631797002	2	45	40	330	30pct	30	50	1		0	0	0	0	0	0	0	0	0	0	0	0	0	0	2	2	0	0	0	0	0	0	0	0	0	0	0	0	1		9	2	cloud	wind	7	16	25	36	0	0	1	7	3456	248.8319999999999936335		0	
6.6.1	mac	0	2023-09-15	19:31:40	1	1	1	experiment	1	experiment_U	2	750	4064	420	250			86	dynamic	POS	1							2	45	40	330	30pct	30	50	1		0	0	0	0	0	0	0	0	0	0	0	0	0	0	2	3	0	0	0	0	0	0	0	0	0	0	0	0	1		11	3	cloud	wind	7	16	25	36	0	0	1	8	3456	248.8319999999999936335		0	
6.6.1	mac	0	2023-09-15	19:31:40	1	1	1	experiment	1	dispFeedback_U	2	750	1000	420	250			86	dynamic	POS	1	108	0.6999999999999999556	75.5999999999999943157	1	10	0.8530656285241864367	2	45	40	330	30pct	30	50	1		1	0	0	0	0	0	1	1	0	0	0	0	0	0	3	3	0	0	0	0	0	0	0	0	0	0	1	0	1		11	3	cloud	wind	7	16	25	36	0	0	1	8	4614	332.2080000000000268301		0	10
6.6.1	mac	0	2023-09-15	19:31:40	1	1	1	experiment	1	experiment_U	2	750	441	450	470			60	dynamic	POS	1					10		2	45	40	330	30pct	30	50	1		1	0	0	0	0	0	1	0	0	0	0	0	0	0	3	4	0	0	0	0	0	0	0	0	0	0	0	0	1		13	4	cloud	wind	7	16	25	36	0	0	1	9	4614	332.2080000000000268301		0	10
6.6.1	mac	0	2023-09-15	19:31:40	1	1	1	experiment	1	dispFeedback_U	2	750	1000	450	470			60	dynamic	POS	1	98	0.6999999999999999556	68.5999999999999943157	98	86	0.6916099625387251981	2	45	40	330	30pct	30	50	1		1	0	0	0	0	0	2	1	0	0	0	0	0	0	4	4	0	0	0	0	0	0	0	0	0	0	1	0	1		13	4	cloud	wind	7	16	25	36	0	0	1	9	4691	337.7520000000000095497		0	86
6.6.1	mac	0	2023-09-15	19:31:40	1	1	1	experiment	1	experiment_noU	2	750	1374	490	170			8	dynamic	POS	1					86		2	45	40		30pct	30	50	1		0	0	0	0	0	0	2	0	0	0	0	0	0	0	4	0	0	0	0	0	0	0	0	0	0	0	0	0	1		14	4	cloud	wind	7	16	25	36	0	0	0	10	4691	337.7520000000000095497		0	86
6.6.1	mac	0	2023-09-15	19:31:40	1	1	1	experiment	1	dispFeedback_noU	2	750	1000	490	170			8	dynamic	POS	1	14	0.6999999999999999556	9.7999999999999989342	1	10	0.8693411736444899285	2	45	40		30pct	30	50	1		0	0	0	0	0	0	2	0	0	0	0	0	0	0	4	0	0	0	0	0	0	0	0	0	0	0	0	0	1		14	4	cloud	wind	7	16	25	36	0	0	0	10	3024	217.7280000000000086402		0	10
6.6.1	mac	0	2023-09-15	19:31:40	1	1	1	experiment	1	experiment_U	2	750	3962	390	280			37	dynamic	POS	1					10		2	45	40		25pct	30	50	1	150	0	0	0	0	0	0	2	0	0	0	0	0	0	0	4	0	0	1	0	0	0	0	0	0	0	0	0	0	1		16	5	cloud	wind	7	16	25	36	0	0	2	11	3024	217.7280000000000086402		0	10
6.6.1	mac	0	2023-09-15	19:31:40	1	1	1	experiment	1	dispFeedback_U	2	750	1000	390	280			37	dynamic	POS	1	32	0.6999999999999999556	22.3999999999999985789	32	35	0.5283154127021123525	2	45	40		25pct	0	50	1	150	0	0	0	0	0	0	2	0	0	0	0	0	0	0	4	0	1	1	0	0	0	0	0	0	0	0	0	0	1		16	5	cloud	wind	7	16	25	36	0	0	2	11	2062	148.4639999999999986358		0	35
6.6.1	mac	0	2023-09-15	19:31:40	1	1	1	experiment	1	experiment_U	2	750	3188	570	400			53	dynamic	POS	1					35		2	45	40		30pct	0	50	1	150	0	0	0	0	0	0	2	0	0	0	0	0	0	0	4	0	1	2	0	0	0	0	0	0	0	0	0	0	1		18	6	cloud	wind	7	16	25	36	0	0	2	12	2062	148.4639999999999986358		0	35
6.6.1	mac	0	2023-09-15	19:31:40	1	1	1	experiment	1	dispFeedback_U	2	750	1000	570	400			53	dynamic	POS	1	31	0.6999999999999999556	21.6999999999999992895	31	35	0.6051065392338452753	2	45	40		30pct	0	50	1	150	0	0	0	0	0	0	2	0	0	0	0	0	0	0	4	0	2	2	0	0	0	0	0	0	0	0	0	0	1		18	6	cloud	wind	7	16	25	36	0	0	2	12	2088	150.3360000000000127329		0	35
6.6.1	mac	0	2023-09-15	19:31:40	1	1	1	experiment	1	experiment_U	2	750	1529	590	330			86	dynamic	POS	1					35		2	45	40		30pct	0	50	1	150	0	0	0	0	0	0	2	0	0	0	0	0	0	0	4	0	2	3	0	0	0	0	0	0	0	0	0	0	1		20	7	cloud	wind	7	16	25	36	0	0	2	13	2088	150.3360000000000127329		0	35
6.6.1	mac	0	2023-09-15	19:31:40	1	1	1	experiment	1	dispFeedback_U	2	750	1000	590	330			86	dynamic	POS	1	32	0.6999999999999999556	22.3999999999999985789	32	29	0.3706040432142568841	2	45	40		30pct	0	50	1	150	0	0	0	0	0	0	2	0	0	0	0	0	0	0	4	0	3	3	0	0	0	0	0	0	0	0	0	0	1		20	7	cloud	wind	7	16	25	36	0	0	2	13	2079	149.6879999999999881766		0	29
6.6.1	mac	0	2023-09-15	19:31:40	1	1	1	experiment	1	experiment_U	2	750	2065	340	180			76	dynamic	POS	1					29		2	45	40		30pct	0	50	1	150	0	0	0	0	0	0	2	0	0	0	0	0	0	0	4	0	3	4	0	0	0	0	0	0	0	0	0	0	1		22	8	cloud	wind	7	16	25	36	0	0	2	14	2079	149.6879999999999881766		0	29
6.6.1	mac	0	2023-09-15	19:31:40	1	1	1	experiment	1	dispFeedback_U	2	750	1000	340	180			76	dynamic	POS	1	31	0.6999999999999999556	21.6999999999999992895	31	32	0.4566516965759572777	2	45	40		30pct	0	50	1	150	0	0	0	0	0	0	2	0	0	0	0	0	0	0	4	0	4	4	0	0	0	0	0	0	0	0	0	0	1		22	8	cloud	wind	7	16	25	36	0	0	2	14	2115	152.2800000000000011369		0	32
6.6.1	mac	0	2023-09-15	19:31:40	1	1	1	experiment	1	experiment_noU	2	750	2798	310	300			84	dynamic	POS	1					32		2	45	40		30pct	0	50	1		0	0	0	0	0	0	2	0	0	0	0	0	0	0	4	0	4	0	0	0	0	0	0	0	0	0	0	0	1		23	8	cloud	wind	7	16	25	36	0	0	0	15	2115	152.2800000000000011369		0	32
6.6.1	mac	0	2023-09-15	19:31:40	1	1	1	experiment	1	dispFeedback_noU	2	750	1000	310	300			84	dynamic	POS	1	20	0.6999999999999999556	14	1	10	0.7189054160190060383	2	45	40		30pct	0	50	1		0	0	0	0	0	0	2	0	0	0	0	0	0	0	4	0	4	0	0	0	0	0	0	0	0	0	0	0	1		23	8	cloud	wind	7	16	25	36	0	0	0	15	3248	233.855999999999994543		0	10
6.6.1	mac	0	2023-09-15	19:31:40	1	1	1	experiment	1	experiment_U	2	750	4815	330	210			95	dynamic	POS	1					10		2	45	40	60	30pct	0	50	1		0	0	0	0	0	0	2	0	0	0	0	0	0	0	4	0	4	0	0	1	0	0	0	0	0	0	0	0	1		25	9	cloud	wind	7	16	25	36	0	0	3	16	3248	233.855999999999994543		0	10
6.6.1	mac	0	2023-09-15	19:31:40	1	1	1	experiment	1	dispFeedback_U	2	750	1000	330	210			95	dynamic	POS	1	127	0.6999999999999999556	88.8999999999999914735	127	145	0.5474013915628663796	2	45	40	60	30pct	0	50	1		0	0	0	0	0	0	2	0	0	0	0	0	0	0	4	0	4	0	1	1	0	0	0	0	0	0	0	0	1		25	9	cloud	wind	7	16	25	36	0	0	3	16	815	58.6799999999999997158		0	145
6.6.1	mac	0	2023-09-15	19:31:40	1	1	1	experiment	1	experiment_U	2	750	4286	430	500			7	dynamic	POS	1					145		2	45	40	60	25pct	0	50	1		0	0	0	0	0	0	2	0	0	0	0	0	0	0	4	0	4	0	1	2	0	0	0	0	0	0	0	0	1		27	10	cloud	wind	7	16	25	36	0	0	3	17	815	58.6799999999999997158		0	145
6.6.1	mac	0	2023-09-15	19:31:40	1	1	1	experiment	1	dispFeedback_U	2	750	1000	430	500			7	dynamic	POS	1	129	0.6999999999999999556	90.2999999999999971578	129	139	0.142254031994904856	2	45	40	60	25pct	0	50	1		0	0	0	0	0	0	2	0	0	0	0	0	0	0	4	0	4	0	2	2	0	0	0	0	0	0	0	0	1		27	10	cloud	wind	7	16	25	36	0	0	3	17	886	63.7920000000000015916		0	139
6.6.1	mac	0	2023-09-15	19:31:40	1	1	1	experiment	1	experiment_U	2	750	4307	300	490			5	dynamic	POS	1					139		2	45	40	60	30pct	0	50	1		0	0	0	0	0	0	2	0	0	0	0	0	0	0	4	0	4	0	2	3	0	0	0	0	0	0	0	0	1		29	11	cloud	wind	7	16	25	36	0	0	3	18	886	63.7920000000000015916		0	139
6.6.1	mac	0	2023-09-15	19:31:40	1	1	1	experiment	1	dispFeedback_U	2	750	1000	300	490			5	dynamic	POS	1	114	0.6999999999999999556	79.7999999999999971578	1	10	0.9628525441425974662	2	45	40	60	30pct	0	50	1		0	0	0	0	0	0	2	0	0	0	0	0	0	0	4	0	4	0	3	3	0	0	0	0	0	0	0	0	1		29	11	cloud	wind	7	16	25	36	0	0	3	18	807	58.1039999999999992042		0	10
6.6.1	mac	0	2023-09-15	19:31:40	1	1	1	experiment	1	experiment_U	2	750	1599	460	160			60	dynamic	POS	1					10		2	45	40	60	30pct	0	50	1		0	0	0	0	0	0	2	0	0	0	0	0	0	0	4	0	4	0	3	4	0	0	0	0	0	0	0	0	1		31	12	cloud	wind	7	16	25	36	0	0	3	19	807	58.1039999999999992042		0	10
6.6.1	mac	0	2023-09-15	19:31:40	1	1	1	experiment	1	dispFeedback_U	2	750	1000	460	160			60	dynamic	POS	1	131	0.6999999999999999556	91.6999999999999886313	131	124	0.0547090580348644981	2	45	40	60	30pct	0	50	1		0	0	0	0	0	0	2	0	0	0	0	0	0	0	4	0	4	0	4	4	0	0	0	0	0	0	0	0	1		31	12	cloud	wind	7	16	25	36	0	0	3	19	849	61.1280000000000001137		0	124
6.6.1	mac	0	2023-09-15	19:31:40	1	1	1	experiment	1	experiment_noU	2	750	1832	210	290			19	dynamic	POS	1					124		2	45	40		30pct	0	50	1		0	0	0	0	0	0	2	0	0	0	0	0	0	0	4	0	4	0	4	0	0	0	0	0	0	0	0	0	1		32	12	cloud	wind	7	16	25	36	0	0	0	20	849	61.1280000000000001137		0	124
6.6.1	mac	0	2023-09-15	19:31:40	1	1	1	experiment	1	dispFeedback_noU	2	750	1000	210	290			19	dynamic	POS	1	-5	0.6999999999999999556	-3.5	1	10	0.8454517095455554854	2	45	40		30pct	0	50	1		0	0	0	0	0	0	2	0	0	0	0	0	0	0	4	0	4	0	4	0	0	0	0	0	0	0	0	0	1		32	12	cloud	wind	7	16	25	36	0	0	0	20	4032	290.3039999999999736247		0	10
6.6.1	mac	0	2023-09-15	19:31:40	1	1	1	experiment	1	experiment_noU	2	750	1142	440	320			25	dynamic	POS	1					10		2	45	40		30pct	0	50	1		0	0	0	0	0	0	2	0	0	0	0	0	0	0	4	0	4	0	4	0	0	0	0	0	0	0	0	0	1		33	12	cloud	wind	7	16	25	36	0	0	0	21	4032	290.3039999999999736247		0	10
6.6.1	mac	0	2023-09-15	19:31:40	1	1	1	experiment	1	dispFeedback_noU	2	750	1000	440	320			25	dynamic	POS	1	1	0.6999999999999999556	0.6999999999999999556	1	10	0.7322619959554313995	2	45	40		30pct	0	50	1		0	0	0	0	0	0	2	0	0	0	0	0	0	0	4	0	4	0	4	0	0	0	0	0	0	0	0	0	1		33	12	cloud	wind	7	16	25	36	0	0	0	21	3642	262.2239999999999895408		0	10
6.6.1	mac	0	2023-09-15	19:31:40	1	1	1	experiment	1	experiment_noU	2	750	768	230	140			63	dynamic	POS	1					10		2	45	40		30pct	0	50	1		0	0	0	0	0	0	2	0	0	0	0	0	0	0	4	0	4	0	4	0	0	0	0	0	0	0	0	0	1		34	12	cloud	wind	7	16	25	36	0	0	0	22	3642	262.2239999999999895408		0	10
6.6.1	mac	0	2023-09-15	19:31:40	1	1	1	experiment	1	dispFeedback_noU	2	750	1000	230	140			63	dynamic	POS	1	135	0.6999999999999999556	94.5	1	10	0.8967887894010144745	2	45	40		30pct	0	50	1		0	0	0	0	0	0	2	0	0	0	0	0	0	0	4	0	4	0	4	0	0	0	0	0	0	0	0	0	1		34	12	cloud	wind	7	16	25	36	0	0	0	22	168	12.0960000000000000853		0	10
6.6.1	mac	0	2023-09-15	19:31:40	1	1	1	experiment	1	experiment_U	2	750	767	510	120			69	dynamic	POS	1					10		2	45	40		30pct	0	50	1	30	0	0	0	0	0	0	2	0	0	0	0	0	0	0	4	0	4	0	4	0	0	1	0	0	0	0	0	0	1		36	13	cloud	wind	7	16	25	36	0	0	4	23	168	12.0960000000000000853		0	10
6.6.1	mac	0	2023-09-15	19:31:40	1	1	1	experiment	1	dispFeedback_U	2	750	1000	510	120			69	dynamic	POS	1	154	0.6999999999999999556	107.7999999999999971578	154	166	0.2061731955516555304	2	45	40		30pct	0	50	1	30	0	0	0	1	0	0	2	0	0	0	0	0	1	1	4	0	4	0	4	0	1	1	0	0	0	0	0	1	1		36	13	cloud	wind	7	16	25	36	0	0	4	23	467	33.6240000000000023306		0	166
6.6.1	mac	0	2023-09-15	19:31:40	1	1	1	experiment	1	experiment_U	2	750	1282	530	240			59	dynamic	POS	1					166		2	45	40		30pct	0	50	1	30	0	0	0	1	0	0	2	0	0	0	0	0	1	0	4	0	4	0	4	0	1	2	0	0	0	0	0	0	1		38	14	cloud	wind	7	16	25	36	0	0	4	24	467	33.6240000000000023306		0	166
6.6.1	mac	0	2023-09-15	19:31:40	1	1	1	experiment	1	dispFeedback_U	2	750	1000	530	240			59	dynamic	POS	1	149	0.6999999999999999556	104.2999999999999971578	149	170	0.1523009091970280171	2	45	40		30pct	0	50	1	30	0	0	0	1	0	0	2	0	0	0	0	0	2	1	4	0	4	0	4	0	2	2	0	0	0	0	0	1	1		38	14	cloud	wind	7	16	25	36	0	0	4	24	482	34.7040000000000006253		0	170
6.6.1	mac	0	2023-09-15	19:31:40	1	1	1	experiment	1	experiment_noU	2	750	960	540	460			3	dynamic	POS	1					170		2	45	40		30pct	0	50	1		0	0	0	1	0	0	2	0	0	0	0	0	2	0	4	0	4	0	4	0	2	0	0	0	0	0	0	0	1		39	14	cloud	wind	7	16	25	36	0	0	0	25	482	34.7040000000000006253		0	170
6.6.1	mac	0	2023-09-15	19:31:40	1	1	1	experiment	1	dispFeedback_noU	2	750	1000	540	460			3	dynamic	POS	1	38	0.6999999999999999556	26.5999999999999978684	38	42	0.6499052356579120282	2	45	40		30pct	0	50	1		0	0	0	1	0	0	2	0	0	0	0	0	2	0	4	0	4	0	4	0	2	0	0	0	0	0	0	0	1		39	14	cloud	wind	7	16	25	36	0	0	0	25	2360	169.9199999999999874944		0	42
6.6.1	mac	0	2023-09-15	19:31:40	1	1	1	experiment	1	experiment_noU	2	750	405	500	360			51	dynamic	POS	1					42		2	45	40		30pct	0	50	1		0	0	0	1	0	0	2	0	0	0	0	0	2	0	4	0	4	0	4	0	2	0	0	0	0	0	0	0	1		40	14	cloud	wind	7	16	25	36	0	0	0	26	2360	169.9199999999999874944		0	42
6.6.1	mac	0	2023-09-15	19:31:40	1	1	1	experiment	1	dispFeedback_noU	2	750	1000	500	360			51	dynamic	POS	1	10	0.6999999999999999556	7	1	10	0.7419841379723475239	2	45	40		30pct	0	50	1		0	0	0	1	0	0	2	0	0	0	0	0	2	0	4	0	4	0	4	0	2	0	0	0	0	0	0	0	1		40	14	cloud	wind	7	16	25	36	0	0	0	26	4205	302.7599999999999909051		0	10
6.6.1	mac	0	2023-09-15	19:31:40	1	1	1	experiment	1	experiment_noU	2	750	350	580	380			38	dynamic	POS	1					10		2	45	40		30pct	0	50	1		0	0	0	1	0	0	2	0	0	0	0	0	2	0	4	0	4	0	4	0	2	0	0	0	0	0	0	0	1		41	14	cloud	wind	7	16	25	36	0	0	0	27	4205	302.7599999999999909051		0	10
6.6.1	mac	0	2023-09-15	19:31:40	1	1	1	experiment	1	dispFeedback_noU	2	750	1000	580	380			38	dynamic	POS	1	10	0.6999999999999999556	7	1	10	0.7004784160993244857	2	45	40		30pct	0	50	1		0	0	0	1	0	0	2	0	0	0	0	0	2	0	4	0	4	0	4	0	2	0	0	0	0	0	0	0	1		41	14	cloud	wind	7	16	25	36	0	0	0	27	3500	252		0	10
6.6.1	mac	0	2023-09-15	19:31:40	1	1	1	experiment	1	experiment_noU	2	750	375	270	270			99	dynamic	POS	1					10		2	45	40		30pct	0	50	1		0	0	0	1	0	0	2	0	0	0	0	0	2	0	4	0	4	0	4	0	2	0	0	0	0	0	0	0	1		42	14	cloud	wind	7	16	25	36	0	0	0	28	3500	252		0	10
6.6.1	mac	0	2023-09-15	19:31:40	1	1	1	experiment	1	dispFeedback_noU	2	750	1000	270	270			99	dynamic	POS	1	32	0.6999999999999999556	22.3999999999999985789	32	28	0.344971954670029668	2	45	40		30pct	0	50	1		0	0	0	1	0	0	2	0	0	0	0	0	2	0	4	0	4	0	4	0	2	0	0	0	0	0	0	0	1		42	14	cloud	wind	7	16	25	36	0	0	0	28	1575	113.4000000000000056843		0	28
6.6.1	mac	0	2023-09-15	19:31:40	1	1	1	experiment	1	experiment_noU	2	750	364	400	190			6	dynamic	POS	1					28		2	45	40		30pct	0	50	1		0	0	0	1	0	0	2	0	0	0	0	0	2	0	4	0	4	0	4	0	2	0	0	0	0	0	0	0	1		43	14	cloud	wind	7	16	25	36	0	0	0	29	1575	113.4000000000000056843		0	28
6.6.1	mac	0	2023-09-15	19:31:40	1	1	1	experiment	1	dispFeedback_noU	2	750	1000	400	190			6	dynamic	POS	1	34	0.6999999999999999556	23.7999999999999971578	1	10	0.8717873380220931834	2	45	40		30pct	0	50	1		0	0	0	1	0	0	2	0	0	0	0	0	2	0	4	0	4	0	4	0	2	0	0	0	0	0	0	0	1		43	14	cloud	wind	7	16	25	36	0	0	0	29	1914	137.807999999999992724		0	10
6.6.1	mac	0	2023-09-15	19:31:40	1	1	1	experiment	1	experiment_noU	2	750	306	220	390			39	dynamic	POS	1					10		2	45	40		30pct	0	50	1		0	0	0	1	0	0	2	0	0	0	0	0	2	0	4	0	4	0	4	0	2	0	0	0	0	0	0	0	1		44	14	cloud	wind	7	16	25	36	0	0	0	30	1914	137.807999999999992724		0	10
6.6.1	mac	0	2023-09-15	19:31:40	1	1	1	experiment	1	dispFeedback_noU	2	750	1000	220	390			39	dynamic	POS	1	18	0.6999999999999999556	12.5999999999999996447	1	10	0.8104508895916983091	2	45	40		30pct	0	50	1		0	0	0	1	0	0	2	0	0	0	0	0	2	0	4	0	4	0	4	0	2	0	0	0	0	0	0	0	1		44	14	cloud	wind	7	16	25	36	0	0	0	30	3506	252.4319999999999879492		0	10
6.6.1	mac	0	2023-09-15	19:31:40	1	1	1	experiment	1	experiment_noU	2	750	380	410	440			48	dynamic	POS	1					10		2	45	40		30pct	0	50	1		0	0	0	1	0	0	2	0	0	0	0	0	2	0	4	0	4	0	4	0	2	0	0	0	0	0	0	0	1		45	14	cloud	wind	7	16	25	36	0	0	0	31	3506	252.4319999999999879492		0	10
6.6.1	mac	0	2023-09-15	19:31:40	1	1	1	experiment	1	dispFeedback_noU	2	750	1000	410	440			48	dynamic	POS	1	18	0.6999999999999999556	12.5999999999999996447	18	20	0.4348766867618255039	2	45	40		30pct	0	50	1		0	0	0	1	0	0	2	0	0	0	0	0	2	0	4	0	4	0	4	0	2	0	0	0	0	0	0	0	1		45	14	cloud	wind	7	16	25	36	0	0	0	31	4030	290.1600000000000250111		0	20
6.6.1	mac	0	2023-09-15	19:31:40	1	1	1	experiment	1	experiment_noU	2	750	364	370	220			55	dynamic	POS	1					20		2	45	40		30pct	0	50	1		0	0	0	1	0	0	2	0	0	0	0	0	2	0	4	0	4	0	4	0	2	0	0	0	0	0	0	0	1		46	14	cloud	wind	7	16	25	36	0	0	0	32	4030	290.1600000000000250111		0	20
6.6.1	mac	0	2023-09-15	19:31:40	1	1	1	experiment	1	dispFeedback_noU	2	750	1000	370	220			55	dynamic	POS	1	27	0.6999999999999999556	18.8999999999999985789	27	28	0.1350091405061560612	2	45	40		30pct	0	50	1		0	0	0	1	0	0	2	0	0	0	0	0	2	0	4	0	4	0	4	0	2	0	0	0	0	0	0	0	1		46	14	cloud	wind	7	16	25	36	0	0	0	32	4364	314.2080000000000268301		0	28
6.6.1	mac	0	2023-09-15	19:31:40	1	1	1	experiment	1	experiment_noU	2	750	370	240	370			25	dynamic	POS	1					28		2	45	40		30pct	0	50	1		0	0	0	1	0	0	2	0	0	0	0	0	2	0	4	0	4	0	4	0	2	0	0	0	0	0	0	0	1		47	14	cloud	wind	7	16	25	36	0	0	0	33	4364	314.2080000000000268301		0	28
6.6.1	mac	0	2023-09-15	19:31:40	1	1	1	experiment	1	dispFeedback_noU	2	750	1000	240	370			25	dynamic	POS	1	43	0.6999999999999999556	30.0999999999999978684	43	44	0.1655030777131912822	2	45	40		30pct	0	50	1		0	0	0	1	0	0	2	0	0	0	0	0	2	0	4	0	4	0	4	0	2	0	0	0	0	0	0	0	1		47	14	cloud	wind	7	16	25	36	0	0	0	33	2870	206.6399999999999863576		0	44
6.6.1	mac	0	2023-09-15	19:31:40	1	1	1	experiment	1	experiment_noU	2	750	356	480	350			83	dynamic	POS	1					44		2	45	40		30pct	0	50	1		0	0	0	1	0	0	2	0	0	0	0	0	2	0	4	0	4	0	4	0	2	0	0	0	0	0	0	0	1		48	14	cloud	wind	7	16	25	36	0	0	0	34	2870	206.6399999999999863576		0	44
6.6.1	mac	0	2023-09-15	19:31:40	1	1	1	experiment	1	dispFeedback_noU	2	750	1000	480	350			83	dynamic	POS	1	81	0.6999999999999999556	56.6999999999999957367	81	89	0.3840408780109232367	2	45	40		30pct	0	50	1		0	0	0	1	0	0	2	0	0	0	0	0	2	0	4	0	4	0	4	0	2	0	0	0	0	0	0	0	1		48	14	cloud	wind	7	16	25	36	0	0	0	34	756	54.43200000000000216		0	89
6.6.1	mac	0	2023-09-15	19:31:40	1	1	1	experiment	1	experiment_noU	2	750	306	320	130			17	dynamic	POS	1					89		2	45	40		30pct	0	50	1		0	0	0	1	0	0	2	0	0	0	0	0	2	0	4	0	4	0	4	0	2	0	0	0	0	0	0	0	1		49	14	cloud	wind	7	16	25	36	0	0	0	35	756	54.43200000000000216		0	89
6.6.1	mac	0	2023-09-15	19:31:40	1	1	1	experiment	1	dispFeedback_noU	2	750	1000	320	130			17	dynamic	POS	1	45	0.6999999999999999556	31.4999999999999964473	45	54	0.6977543250419558918	2	45	40		30pct	0	50	1		0	0	0	1	0	0	2	0	0	0	0	0	2	0	4	0	4	0	4	0	2	0	0	0	0	0	0	0	1		49	14	cloud	wind	7	16	25	36	0	0	0	35	2406	173.2319999999999993179		0	54
6.6.1	mac	0	2023-09-15	19:31:40	1	1	1	experiment	1	experiment_noU	2	750	322	600	260			46	dynamic	POS	1					54		2	45	40		30pct	0	50	1		0	0	0	1	0	0	2	0	0	0	0	0	2	0	4	0	4	0	4	0	2	0	0	0	0	0	0	0	1		50	14	cloud	wind	7	16	25	36	0	0	0	36	2406	173.2319999999999993179		0	54
6.6.1	mac	0	2023-09-15	19:31:40	1	1	1	experiment	1	dispFeedback_noU	2	750	1000	600	260			46	dynamic	POS	1	33	0.6999999999999999556	23.0999999999999978684	33	26	0.2783980547167356212	2	45	40		30pct	0	50	1		0	0	0	1	0	0	2	0	0	0	0	0	2	0	4	0	4	0	4	0	2	0	0	0	0	0	0	0	1		50	14	cloud	wind	7	16	25	36	0	0	0	36	3872	278.7839999999999918145		0	26
6.6.1	mac	0	2023-09-15	19:31:40	1	1	1	experiment	1	experiment_noU	2	750	403	360	150			52	dynamic	POS	1					26		2	45	40		30pct	0	50	1		0	0	0	1	0	0	2	0	0	0	0	0	2	0	4	0	4	0	4	0	2	0	0	0	0	0	0	0	1		51	14	cloud	wind	7	16	25	36	0	0	0	37	3872	278.7839999999999918145		0	26
6.6.1	mac	0	2023-09-15	19:31:40	1	1	1	experiment	1	dispFeedback_noU	2	750	1000	360	150			52	dynamic	POS	1	39	0.6999999999999999556	27.2999999999999971578	39	41	0.2193062094085165836	2	45	40		30pct	0	50	1		0	0	0	1	0	0	2	0	0	0	0	0	2	0	4	0	4	0	4	0	2	0	0	0	0	0	0	0	1		51	14	cloud	wind	7	16	25	36	0	0	0	37	4253	306.2160000000000081855		0	41
6.6.1	mac	0	2023-09-15	19:31:40	1	1	1	experiment	1	experiment_noU	2	750	422	470	410			33	dynamic	POS	1					41		2	45	40		30pct	0	50	1		0	0	0	1	0	0	2	0	0	0	0	0	2	0	4	0	4	0	4	0	2	0	0	0	0	0	0	0	1		52	14	cloud	wind	7	16	25	36	0	0	0	38	4253	306.2160000000000081855		0	41
6.6.1	mac	0	2023-09-15	19:31:40	1	1	1	experiment	1	dispFeedback_noU	2	750	1000	470	410			33	dynamic	POS	1	43	0.6999999999999999556	30.0999999999999978684	43	44	0.2565564758275999946	2	45	40		30pct	0	50	1		0	0	0	1	0	0	2	0	0	0	0	0	2	0	4	0	4	0	4	0	2	0	0	0	0	0	0	0	1		52	14	cloud	wind	7	16	25	36	0	0	0	38	3322	239.1839999999999974989		0	44
6.6.1	mac	0	2023-09-15	19:31:40	1	1	1	experiment	1	experiment_noU	2	750	353	560	420			95	dynamic	POS	1					44		2	45	40		30pct	0	50	1		0	0	0	1	0	0	2	0	0	0	0	0	2	0	4	0	4	0	4	0	2	0	0	0	0	0	0	0	1		53	14	cloud	wind	7	16	25	36	0	0	0	39	3322	239.1839999999999974989		0	44
6.6.1	mac	0	2023-09-15	19:31:40	1	1	1	experiment	1	dispFeedback_noU	2	750	1000	560	420			95	dynamic	POS	1	47	0.6999999999999999556	32.8999999999999985789	47	46	0.0035250231166195642	2	45	40		30pct	0	50	1		0	0	0	1	0	0	2	0	0	0	0	0	2	0	4	0	4	0	4	0	2	0	0	0	0	0	0	0	1		53	14	cloud	wind	7	16	25	36	0	0	0	39	1353	97.4159999999999968168		0	46
6.6.1	mac	0	2023-09-15	19:31:40	1	1	1	experiment	1	experiment_noU	2	750	423	290	310			28	dynamic	POS	1					46		2	45	40		30pct	0	50	1		0	0	0	1	0	0	2	0	0	0	0	0	2	0	4	0	4	0	4	0	2	0	0	0	0	0	0	0	1		54	14	cloud	wind	7	16	25	36	0	0	0	40	1353	97.4159999999999968168		0	46
6.6.1	mac	0	2023-09-15	19:31:40	1	1	1	experiment	1	dispFeedback_noU	2	750	1000	290	310			28	dynamic	POS	1	57	0.6999999999999999556	39.8999999999999985789	1	10	0.7095645516434602174	2	45	40		30pct	0	50	1		0	0	0	1	0	0	2	0	0	0	0	0	2	0	4	0	4	0	4	0	2	0	0	0	0	0	0	0	1		54	14	cloud	wind	7	16	25	36	0	0	0	40	3073	221.2560000000000002274		0	10
6.6.1	mac	0	2023-09-15	19:31:40	1	1	1	experiment	1	experiment_noU	2	750	370	530	450			71	dynamic	POS	1					10		2	45	40		30pct	0	50	1		0	0	0	1	0	0	2	0	0	0	0	0	2	0	4	0	4	0	4	0	2	0	0	0	0	0	0	0	1		55	14	cloud	wind	7	16	25	36	0	0	0	41	3073	221.2560000000000002274		0	10
6.6.1	mac	0	2023-09-15	19:31:40	1	1	1	experiment	1	dispFeedback_noU	2	750	1000	530	450			71	dynamic	POS	1	42	0.6999999999999999556	29.3999999999999985789	42	42	0.0497114262659362136	2	45	40		30pct	0	50	1		0	0	0	1	0	0	2	0	0	0	0	0	2	0	4	0	4	0	4	0	2	0	0	0	0	0	0	0	1		55	14	cloud	wind	7	16	25	36	0	0	0	41	170	12.2400000000000002132		0	42
6.6.1	mac	0	2023-09-15	19:31:40	1	1	1	experiment	1	experiment_noU	2	750	354	440	500			73	dynamic	POS	1					42		2	45	40		30pct	0	50	1		0	0	0	1	0	0	2	0	0	0	0	0	2	0	4	0	4	0	4	0	2	0	0	0	0	0	0	0	1		56	14	cloud	wind	7	16	25	36	0	0	0	42	170	12.2400000000000002132		0	42
6.6.1	mac	0	2023-09-15	19:31:40	1	1	1	experiment	1	dispFeedback_noU	2	750	1000	440	500			73	dynamic	POS	1	40	0.6999999999999999556	28	1	10	0.9513551988525676961	2	45	40		30pct	0	50	1		0	0	0	1	0	0	2	0	0	0	0	0	2	0	4	0	4	0	4	0	2	0	0	0	0	0	0	0	1		56	14	cloud	wind	7	16	25	36	0	0	0	42	254	18.2880000000000002558		0	10
6.6.1	mac	0	2023-09-15	19:31:40	1	1	1	experiment	1	experiment_noU	2	750	344	290	170			12	dynamic	POS	1					10		2	45	40		30pct	0	50	1		0	0	0	1	0	0	2	0	0	0	0	0	2	0	4	0	4	0	4	0	2	0	0	0	0	0	0	0	1		57	14	cloud	wind	7	16	25	36	0	0	0	43	254	18.2880000000000002558		0	10
6.6.1	mac	0	2023-09-15	19:31:40	1	1	1	experiment	1	dispFeedback_noU	2	750	1000	290	170			12	dynamic	POS	1	21	0.6999999999999999556	14.6999999999999992895	21	19	0.5106180004101754655	2	45	40		30pct	0	50	1		0	0	0	1	0	0	2	0	0	0	0	0	2	0	4	0	4	0	4	0	2	0	0	0	0	0	0	0	1		57	14	cloud	wind	7	16	25	36	0	0	0	43	2194	157.9679999999999893134		0	19
6.6.1	mac	0	2023-09-15	19:31:40	1	1	1	experiment	1	experiment_noU	2	750	434	200	190			50	dynamic	POS	1					19		2	45	40		30pct	0	50	1		0	0	0	1	0	0	2	0	0	0	0	0	2	0	4	0	4	0	4	0	2	0	0	0	0	0	0	0	1		58	14	cloud	wind	7	16	25	36	0	0	0	44	2194	157.9679999999999893134		0	19
6.6.1	mac	0	2023-09-15	19:31:40	1	1	1	experiment	1	dispFeedback_noU	2	750	1000	200	190			50	dynamic	POS	1	83	0.6999999999999999556	58.0999999999999943157	83	84	0.2514687739898144869	2	45	40		30pct	0	50	1		0	0	0	1	0	0	2	0	0	0	0	0	2	0	4	0	4	0	4	0	2	0	0	0	0	0	0	0	1		58	14	cloud	wind	7	16	25	36	0	0	0	44	4184	301.2479999999999904503		0	84
6.6.1	mac	0	2023-09-15	19:31:40	1	1	1	experiment	1	experiment_noU	2	750	360	210	280			74	dynamic	POS	1					84		2	45	40		30pct	0	50	1		0	0	0	1	0	0	2	0	0	0	0	0	2	0	4	0	4	0	4	0	2	0	0	0	0	0	0	0	1		59	14	cloud	wind	7	16	25	36	0	0	0	45	4184	301.2479999999999904503		0	84
6.6.1	mac	0	2023-09-15	19:31:40	1	1	1	experiment	1	dispFeedback_noU	2	750	1000	210	280			74	dynamic	POS	1	35	0.6999999999999999556	24.5	35	34	0.3157845431277026549	2	45	40		30pct	0	50	1		0	0	0	1	0	0	2	0	0	0	0	0	2	0	4	0	4	0	4	0	2	0	0	0	0	0	0	0	1		59	14	cloud	wind	7	16	25	36	0	0	0	45	310	22.3200000000000002842		0	34
6.6.1	mac	0	2023-09-15	19:31:40	1	1	1	experiment	1	experiment_noU	2	750	338	390	470			51	dynamic	POS	1					34		2	45	40		30pct	0	50	1		0	0	0	1	0	0	2	0	0	0	0	0	2	0	4	0	4	0	4	0	2	0	0	0	0	0	0	0	1		60	14	cloud	wind	7	16	25	36	0	0	0	46	310	22.3200000000000002842		0	34
6.6.1	mac	0	2023-09-15	19:31:40	1	1	1	experiment	1	dispFeedback_noU	2	750	1000	390	470			51	dynamic	POS	1	81	0.6999999999999999556	56.6999999999999957367	1	10	0.7766817262807585998	2	45	40		30pct	0	50	1		0	0	0	1	0	0	2	0	0	0	0	0	2	0	4	0	4	0	4	0	2	0	0	0	0	0	0	0	1		60	14	cloud	wind	7	16	25	36	0	0	0	46	4138	297.9359999999999786269		0	10
6.6.1	mac	0	2023-09-15	19:31:40	1	1	1	experiment	1	experiment_noU	2	750	613	400	240			28	dynamic	POS	1					10		2	45	40		30pct	0	50	1		0	0	0	1	0	0	2	0	0	0	0	0	2	0	4	0	4	0	4	0	2	0	0	0	0	0	0	0	1		61	14	cloud	wind	7	16	25	36	0	0	0	47	4138	297.9359999999999786269		0	10
6.6.1	mac	0	2023-09-15	19:31:40	1	1	1	experiment	1	dispFeedback_noU	2	750	1000	400	240			28	dynamic	POS	1	130	0.6999999999999999556	91	130	132	0.3516805247291178715	2	45	40		30pct	0	50	1		0	0	0	1	0	0	2	0	0	0	0	0	2	0	4	0	4	0	4	0	2	0	0	0	0	0	0	0	1		61	14	cloud	wind	7	16	25	36	0	0	0	47	3263	234.9360000000000070486		0	132
6.6.1	mac	0	2023-09-15	19:31:40	1	1	1	experiment	1	experiment_noU	2	750	360	490	210			27	dynamic	POS	1					132		2	45	40		30pct	0	50	1		0	0	0	1	0	0	2	0	0	0	0	0	2	0	4	0	4	0	4	0	2	0	0	0	0	0	0	0	1		62	14	cloud	wind	7	16	25	36	0	0	0	48	3263	234.9360000000000070486		0	132
6.6.1	mac	0	2023-09-15	19:31:40	1	1	1	experiment	1	dispFeedback_noU	2	750	1000	490	210			27	dynamic	POS	1	95	0.6999999999999999556	66.5	1	10	0.9255921412086095534	2	45	40		30pct	0	50	1		0	0	0	1	0	0	2	0	0	0	0	0	2	0	4	0	4	0	4	0	2	0	0	0	0	0	0	0	1		62	14	cloud	wind	7	16	25	36	0	0	0	48	2960	213.1200000000000045475		0	10
6.6.1	mac	0	2023-09-15	19:31:40	1	1	1	experiment	1	experiment_noU	2	750	341	500	100			38	dynamic	POS	1					10		2	45	40		30pct	0	50	1		0	0	0	1	0	0	2	0	0	0	0	0	2	0	4	0	4	0	4	0	2	0	0	0	0	0	0	0	1		63	14	cloud	wind	7	16	25	36	0	0	0	49	2960	213.1200000000000045475		0	10
6.6.1	mac	0	2023-09-15	19:31:40	1	1	1	experiment	1	dispFeedback_noU	2	750	1000	500	100			38	dynamic	POS	1	148	0.6999999999999999556	103.5999999999999943157	148	165	0.4856225008809991195	2	45	40		30pct	0	50	1		0	0	0	1	0	0	2	0	0	0	0	0	2	0	4	0	4	0	4	0	2	0	0	0	0	0	0	0	1		63	14	cloud	wind	7	16	25	36	0	0	0	49	3491	251.3520000000000038654		0	165
6.6.1	mac	0	2023-09-15	19:31:40	1	1	1	experiment	1	experiment_noU	2	750	2585	560	410			93	dynamic	POS	1					165		2	45	40		30pct	0	50	1		0	0	0	1	0	0	2	0	0	0	0	0	2	0	4	0	4	0	4	0	2	0	0	0	0	0	0	0	1		64	14	cloud	wind	7	16	25	36	0	0	0	50	3491	251.3520000000000038654		0	165
6.6.1	mac	0	2023-09-15	19:31:40	1	1	1	experiment	1	dispFeedback_noU	2	750	1000	560	410			93	dynamic	POS	1	142	0.6999999999999999556	99.3999999999999914735	142	125	0.404387874157258298	2	45	40		30pct	0	50	1		0	0	0	1	0	0	2	0	0	0	0	0	2	0	4	0	4	0	4	0	2	0	0	0	0	0	0	0	1		64	14	cloud	wind	7	16	25	36	0	0	0	50	3485	250.9199999999999874944		0	125
6.6.1	mac	0	2023-09-15	19:31:40	1	1	1	experiment	1	experiment_noU	2	750	430	350	310			37	dynamic	POS	1					125		2	45	40		30pct	0	50	1		0	0	0	1	0	0	2	0	0	0	0	0	2	0	4	0	4	0	4	0	2	0	0	0	0	0	0	0	1		65	14	cloud	wind	7	16	25	36	0	0	0	51	3485	250.9199999999999874944		0	125
6.6.1	mac	0	2023-09-15	19:31:40	1	1	1	experiment	1	dispFeedback_noU	2	750	1000	350	310			37	dynamic	POS	1	123	0.6999999999999999556	86.0999999999999943157	123	125	0.1905170546822522459	2	45	40		30pct	0	50	1		0	0	0	1	0	0	2	0	0	0	0	0	2	0	4	0	4	0	4	0	2	0	0	0	0	0	0	0	1		65	14	cloud	wind	7	16	25	36	0	0	0	51	3530	254.1599999999999965894		0	125
6.6.1	mac	0	2023-09-15	19:31:40	1	1	1	experiment	1	experiment_noU	2	750	452	320	440			57	dynamic	POS	1					125		2	45	40		30pct	0	50	1		0	0	0	1	0	0	2	0	0	0	0	0	2	0	4	0	4	0	4	0	2	0	0	0	0	0	0	0	1		66	14	cloud	wind	7	16	25	36	0	0	0	52	3530	254.1599999999999965894		0	125
6.6.1	mac	0	2023-09-15	19:31:40	1	1	1	experiment	1	dispFeedback_noU	2	750	1000	320	440			57	dynamic	POS	1	25	0.6999999999999999556	17.5	25	27	0.0055669609004554716	2	45	40		30pct	0	50	1		0	0	0	1	0	0	2	0	0	0	0	0	2	0	4	0	4	0	4	0	2	0	0	0	0	0	0	0	1		66	14	cloud	wind	7	16	25	36	0	0	0	52	4552	327.7440000000000281943		0	27
6.6.1	mac	0	2023-09-15	19:31:40	1	1	1	experiment	1	experiment_noU	2	750	374	480	150			84	dynamic	POS	1					27		2	45	40		30pct	0	50	1		0	0	0	1	0	0	2	0	0	0	0	0	2	0	4	0	4	0	4	0	2	0	0	0	0	0	0	0	1		67	14	cloud	wind	7	16	25	36	0	0	0	53	4552	327.7440000000000281943		0	27
6.6.1	mac	0	2023-09-15	19:31:40	1	1	1	experiment	1	dispFeedback_noU	2	750	1000	480	150			84	dynamic	POS	1	24	0.6999999999999999556	16.7999999999999971578	24	29	0.6124680290493341728	2	45	40		30pct	0	50	1		0	0	0	1	0	0	2	0	0	0	0	0	2	0	4	0	4	0	4	0	2	0	0	0	0	0	0	0	1		67	14	cloud	wind	7	16	25	36	0	0	0	53	824	59.3280000000000029559		0	29
6.6.1	mac	0	2023-09-15	19:31:40	1	1	1	experiment	1	experiment_noU	2	750	306	310	460			57	dynamic	POS	1					29		2	45	40		30pct	0	50	1		0	0	0	1	0	0	2	0	0	0	0	0	2	0	4	0	4	0	4	0	2	0	0	0	0	0	0	0	1		68	14	cloud	wind	7	16	25	36	0	0	0	54	824	59.3280000000000029559		0	29
6.6.1	mac	0	2023-09-15	19:31:40	1	1	1	experiment	1	dispFeedback_noU	2	750	1000	310	460			57	dynamic	POS	1	27	0.6999999999999999556	18.8999999999999985789	27	27	0.5674205670523039258	2	45	40		30pct	0	50	1		0	0	0	1	0	0	2	0	0	0	0	0	2	0	4	0	4	0	4	0	2	0	0	0	0	0	0	0	1		68	14	cloud	wind	7	16	25	36	0	0	0	54	4406	317.2320000000000277396		0	27
6.6.1	mac	0	2023-09-15	19:31:40	1	1	1	experiment	1	experiment_noU	2	750	753	460	200			24	dynamic	POS	1					27		2	45	40		30pct	0	50	1		0	0	0	1	0	0	2	0	0	0	0	0	2	0	4	0	4	0	4	0	2	0	0	0	0	0	0	0	1		69	14	cloud	wind	7	16	25	36	0	0	0	55	4406	317.2320000000000277396		0	27
6.6.1	mac	0	2023-09-15	19:31:40	1	1	1	experiment	1	dispFeedback_noU	2	750	1000	460	200			24	dynamic	POS	1	154	0.6999999999999999556	107.7999999999999971578	154	163	0.412397421061153846	2	45	40		30pct	0	50	1		0	0	0	1	0	0	2	0	0	0	0	0	2	0	4	0	4	0	4	0	2	0	0	0	0	0	0	0	1		69	14	cloud	wind	7	16	25	36	0	0	0	55	3203	230.6160000000000138698		0	163
6.6.1	mac	0	2023-09-15	19:31:40	1	1	1	experiment	1	experiment_noU	2	750	450	220	130			33	dynamic	POS	1					163		2	45	40		30pct	0	50	1		0	0	0	1	0	0	2	0	0	0	0	0	2	0	4	0	4	0	4	0	2	0	0	0	0	0	0	0	1		70	14	cloud	wind	7	16	25	36	0	0	0	56	3203	230.6160000000000138698		0	163
6.6.1	mac	0	2023-09-15	19:31:40	1	1	1	experiment	1	dispFeedback_noU	2	750	1000	220	130			33	dynamic	POS	1	152	0.6999999999999999556	106.3999999999999914735	1	10	0.8401102549024183075	2	45	40		30pct	0	50	1		0	0	0	1	0	0	2	0	0	0	0	0	2	0	4	0	4	0	4	0	2	0	0	0	0	0	0	0	1		70	14	cloud	wind	7	16	25	36	0	0	0	56	3350	241.1999999999999886313		0	10
6.6.1	mac	0	2023-09-15	19:31:40	1	1	1	experiment	1	experiment_noU	2	750	585	240	180			92	dynamic	POS	1					10		2	45	40		30pct	0	50	1		0	0	0	1	0	0	2	0	0	0	0	0	2	0	4	0	4	0	4	0	2	0	0	0	0	0	0	0	1		71	14	cloud	wind	7	16	25	36	0	0	0	57	3350	241.1999999999999886313		0	10
6.6.1	mac	0	2023-09-15	19:31:40	1	1	1	experiment	1	dispFeedback_noU	2	750	1000	240	180			92	dynamic	POS	1	-1	0.6999999999999999556	-0.6999999999999999556	-1		0.1794403335497342933	2	45	40		30pct	0	50	1		0	0	0	1	0	0	2	0	0	0	0	0	2	0	4	0	4	0	4	0	2	0	0	0	0	0	0	0	1		71	14	cloud	wind	7	16	25	36	0	0	0	57	1435	103.3199999999999931788		0	
6.6.1	mac	0	2023-09-15	19:31:40	1	1	1	experiment	1	experiment_noU	2	750	738	360	140			90	dynamic	POS	1							2	45	40		30pct	0	50	1		0	0	0	1	0	0	2	0	0	0	0	0	2	0	4	0	4	0	4	0	2	0	0	0	0	0	0	0	1		72	14	cloud	wind	7	16	25	36	0	0	0	58	1435	103.3199999999999931788		0	
6.6.1	mac	0	2023-09-15	19:31:40	1	1	1	experiment	1	dispFeedback_noU	2	750	1000	360	140			90	dynamic	POS	1	0	0.6999999999999999556	0	0		0.6877841157111768133	2	45	40		30pct	0	50	1		0	0	0	1	0	0	2	0	0	0	0	0	2	0	4	0	4	0	4	0	2	0	0	0	0	0	0	0	1		72	14	cloud	wind	7	16	25	36	0	0	0	58	1488	107.1359999999999956799		0	
6.6.1	mac	0	2023-09-15	19:31:40	1	1	1	experiment	1	experiment_noU	2	750	1858	270	270			69	dynamic	POS	1							2	45	40		30pct	0	50	1		0	0	0	1	0	0	2	0	0	0	0	0	2	0	4	0	4	0	4	0	2	0	0	0	0	0	0	0	1		73	14	cloud	wind	7	16	25	36	0	0	0	59	1488	107.1359999999999956799		0	
6.6.1	mac	0	2023-09-15	19:31:40	1	1	1	experiment	1	dispFeedback_noU	2	750	1000	270	270			69	dynamic	POS	1	-2	0.6999999999999999556	-1.3999999999999999112	-2		0.3333111641307620054	2	45	40		30pct	0	50	1		0	0	0	1	0	0	2	0	0	0	0	0	2	0	4	0	4	0	4	0	2	0	0	0	0	0	0	0	1		73	14	cloud	wind	7	16	25	36	0	0	0	59	1558	112.1760000000000019327		0	
6.6.1	mac	0	2023-09-15	19:31:40	1	1	1	experiment	1	experiment_noU	2	750	1168	470	120			18	dynamic	POS	1							2	45	40		30pct	0	50	1		0	0	0	1	0	0	2	0	0	0	0	0	2	0	4	0	4	0	4	0	2	0	0	0	0	0	0	0	1		74	14	cloud	wind	7	16	25	36	0	0	0	60	1558	112.1760000000000019327		0	
6.6.1	mac	0	2023-09-15	19:31:40	1	1	1	experiment	1	dispFeedback_noU	2	750	1000	470	120			18	dynamic	POS	1	154	0.6999999999999999556	107.7999999999999971578	1	10	0.9214596480413944635	2	45	40		30pct	0	50	1		0	0	0	1	0	0	2	0	0	0	0	0	2	0	4	0	4	0	4	0	2	0	0	0	0	0	0	0	1		74	14	cloud	wind	7	16	25	36	0	0	0	60	3318	238.895999999999986585		0	10
6.6.1	mac	0	2023-09-15	19:31:40	1	1	1	experiment	1	preFreeze_noU	2	750	271	470	120			18	dynamic	POS	1	154	0.6999999999999999556	107.7999999999999971578	1	10	0.9214596480413944635	2	45	40		30pct	0	50	1		0	0	0	1	0	0	2	0	0	0	0	0	2	0	4	0	4	0	4	0	2	0	0	0	0	0	0	0	1		75	14	cloud	wind	7	16	25	36	0	0	0	61	3318	238.895999999999986585		0	10
