build	computer.platform	computer.touch	date	time	subject	group	sessionid	blockcode	blocknum	trialcode	preClockFreezeBlock	list.preClockFreeze.currentvalue	latency	list.ISI.currentvalue	list.ITI.currentvalue	trial.instructions5_1.response	trial.instructions5_2.response	startPos	scrfunc	rtvspos	randStart	mag	freq	ev	inc	inc_rg	rng	fogPos1	fogPos3	fogPos5	fogPos_out	list.wind_size.currentvalue	windPos2	windPos4	windPos6	windPos_out	chooseFog1	chooseWind2	chooseFog3	chooseWind4	chooseFog5	chooseWind6	choose_unc_att1	choose_unc_att_out1	choose_unc_att2	choose_unc_att_out2	choose_unc_att3	choose_unc_att_out3	choose_unc_att4	choose_unc_att_out4	unc_att_count1	unc_att_count_out1	unc_att_count2	unc_att_count_out2	unc_att_count3	unc_att_count_out3	unc_att_count4	unc_att_count_out4	unc_att_count5	unc_att_count_out5	unc_att_count6	unc_att_count_out6	chooseAttentionalControl	chooseUncertainty	blockCount	ntrials	trialCount	meta_trialCount	trialCount_dum	attentional_control	local_uncertainty	unc_att_start1	unc_att_start2	unc_att_start3	unc_att_start4	unc_att_start5	unc_att_start6	unc_att_block	list.rt_0.currentindex	rt_shifted	pos_shifted	totalPoints	totalEarnings	Earnings
6.6.1	mac	0	2023-09-15	15:22:18	1	1	1	experiment	1	experiment_noU	2	750	747	230	450			49	dynamic	POS	1							2	5	15			40	5	2		0	0	0	0	0	0	0	0	0	0	0	0	0	0	0	0	0	0	0	0	0	0	0	0	0	0	0	0	1		1	1	1	cloud	wind	5	16	25	37	0	0	0	0			0	0	
6.6.1	mac	0	2023-09-15	15:22:18	1	1	1	experiment	1	dispFeedback_noU	2	750	1000	230	450			49	dynamic	POS	1	90	0.6999999999999999556	62.9999999999999928946	90	90	0.6462704473282839812	2	5	15			40	5	2		0	0	0	0	0	0	0	0	0	0	0	0	0	0	0	0	0	0	0	0	0	0	0	0	0	0	0	0	1		1	1	1	cloud	wind	5	16	25	37	0	0	0	1	4447	320.1840000000000259206	90	0	90
6.6.1	mac	0	2023-09-15	15:22:18	1	1	1	experiment	1	experiment_noU	2	750	1652	580	400			31	dynamic	POS	1					90		2	5	15			40	5	2		0	0	0	0	0	0	0	0	0	0	0	0	0	0	0	0	0	0	0	0	0	0	0	0	0	0	0	0	1		2	2	1	cloud	wind	5	16	25	37	0	0	0	1	4447	320.1840000000000259206	90	0	90
6.6.1	mac	0	2023-09-15	15:22:18	1	1	1	experiment	1	dispFeedback_noU	2	750	1000	580	400			31	dynamic	POS	1	70	0.6999999999999999556	49	70	62	0.3465487080036077638	2	5	15			40	5	2		0	0	0	0	0	0	0	0	0	0	0	0	0	0	0	0	0	0	0	0	0	0	0	0	0	0	0	0	1		2	2	1	cloud	wind	5	16	25	37	0	0	0	2	4452	320.5439999999999827196	160	0	62
6.6.1	mac	0	2023-09-15	15:22:18	1	1	1	experiment	1	experiment_noU	2	750	563	310	280			85	dynamic	POS	1					62		2	5	15			40	5	2		0	0	0	0	0	0	0	0	0	0	0	0	0	0	0	0	0	0	0	0	0	0	0	0	0	0	0	0	1		3	3	1	cloud	wind	5	16	25	37	0	0	0	2	4452	320.5439999999999827196	160	0	62
6.6.1	mac	0	2023-09-15	15:22:18	1	1	1	experiment	1	dispFeedback_noU	2	750	1000	310	280			85	dynamic	POS	1	33	0.6999999999999999556	23.0999999999999978684	33	35	0.1418091836715604237	2	5	15			40	5	2		0	0	0	0	0	0	0	0	0	0	0	0	0	0	0	0	0	0	0	0	0	0	0	0	0	0	0	0	1		3	3	1	cloud	wind	5	16	25	37	0	0	0	3	1063	76.5360000000000013642	193	0	35
6.6.1	mac	0	2023-09-15	15:22:18	1	1	1	experiment	1	experiment_noU	2	750	1502	330	290			59	dynamic	POS	1					35		2	5	15			40	5	2		0	0	0	0	0	0	0	0	0	0	0	0	0	0	0	0	0	0	0	0	0	0	0	0	0	0	0	0	1		4	4	1	cloud	wind	5	16	25	37	0	0	0	3	1063	76.5360000000000013642	193	0	35
6.6.1	mac	0	2023-09-15	15:22:18	1	1	1	experiment	1	dispFeedback_noU	2	750	1000	330	290			59	dynamic	POS	1	59	0.6999999999999999556	41.2999999999999971578	59	71	0.0918666606517198198	2	5	15			40	5	2		0	0	0	0	0	0	0	0	0	0	0	0	0	0	0	0	0	0	0	0	0	0	0	0	0	0	0	0	1		4	4	1	cloud	wind	5	16	25	37	0	0	0	4	702	50.5439999999999969305	252	0	71
6.6.1	mac	0	2023-09-15	15:22:18	1	1	1	experiment	1	experiment_U	2	750	886	490	200			72	dynamic	POS	1					71		2	5	15			40	5	2		0	0	0	0	0	0	0	0	0	0	0	0	0	0	0	1	0	0	0	0	0	0	0	0	0	0	0	0	1		5	5	1	cloud	wind	5	16	25	37	0	0	0	4	702	50.5439999999999969305	252	0	71
6.6.1	mac	0	2023-09-15	15:22:18	1	1	1	experiment	1	dispFeedback_U	2	750	1000	490	200			72	dynamic	POS	1	51	0.6999999999999999556	35.6999999999999957367	51	42	0.2304053495708865418	2	5	15			40	5	2		0	0	0	0	0	0	0	0	0	0	0	0	0	0	0	1	0	0	0	0	0	0	0	0	0	0	0	0	1		5	5	1	cloud	wind	5	16	25	37	0	0	0	5	736	52.9919999999999973284	303	0	42
6.6.1	mac	0	2023-09-15	15:22:18	1	1	1	experiment	1	experiment_U	2	750	3632	220	120			93	dynamic	POS	1					42		2	5	15	330	30pct	40	5	2		0	0	0	0	0	0	0	0	0	0	0	0	0	0	0	2	0	0	0	0	0	0	0	0	0	0	0	0	1		6	6	2	cloud	wind	5	16	25	37	0	0	1	5	736	52.9919999999999973284	303	0	42
6.6.1	mac	0	2023-09-15	15:22:18	1	1	1	experiment	1	dispFeedback_U	2	750	1000	220	120			93	dynamic	POS	1	120	0.6999999999999999556	84	120	130	0.2685894417270527912	2	5	15	330	30pct	40	5	2		1	0	0	0	0	0	1	1	0	0	0	0	0	0	1	2	0	0	0	0	0	0	0	0	0	0	1	0	1		6	6	2	cloud	wind	5	16	25	37	0	0	1	6	4532	326.3039999999999736247	423	0	130
6.6.1	mac	0	2023-09-15	15:22:18	1	1	1	experiment	1	experiment_U	2	750	1825	570	210			30	dynamic	POS	1					130		2	5	15	330	30pct	40	5	2		1	0	0	0	0	0	1	0	0	0	0	0	0	0	1	3	0	0	0	0	0	0	0	0	0	0	0	0	1		7	7	3	cloud	wind	5	16	25	37	0	0	1	6	4532	326.3039999999999736247	423	0	130
6.6.1	mac	0	2023-09-15	15:22:18	1	1	1	experiment	1	dispFeedback_U	2	750	1000	570	210			30	dynamic	POS	1	113	0.6999999999999999556	79.0999999999999943157	113	121	0.3566826850540663063	2	5	15	330	30pct	40	5	2		1	0	0	0	0	0	2	1	0	0	0	0	0	0	2	3	0	0	0	0	0	0	0	0	0	0	1	0	1		7	7	3	cloud	wind	5	16	25	37	0	0	1	7	4575	329.3999999999999772626	536	0	121
6.6.1	mac	0	2023-09-15	15:22:18	1	1	1	experiment	1	experiment_noU	2	750	1719	550	160			40	dynamic	POS	1					121		2	5	15		30pct	40	5	2		0	0	0	0	0	0	2	0	0	0	0	0	0	0	2	0	0	0	0	0	0	0	0	0	0	0	0	0	1		8	8	4	cloud	wind	5	12	25	37	0	0	0	7	4575	329.3999999999999772626	536	0	121
6.6.1	mac	0	2023-09-15	15:22:18	1	1	1	experiment	1	dispFeedback_noU	2	750	1000	550	160			40	dynamic	POS	1	152	0.6999999999999999556	106.3999999999999914735	152	163	0.0722187969536098595	2	5	15		30pct	40	5	2		0	0	0	0	0	0	2	0	0	0	0	0	0	0	2	0	0	0	0	0	0	0	0	0	0	0	0	0	1		8	8	4	cloud	wind	5	12	25	37	0	0	0	8	4969	357.7679999999999722604	688	0	163
6.6.1	mac	0	2023-09-15	15:22:18	1	1	1	experiment	1	experiment_noU	2	750	2296	530	310			29	dynamic	POS	1					163		2	5	15		30pct	40	5	2		0	0	0	0	0	0	2	0	0	0	0	0	0	0	2	0	0	0	0	0	0	0	0	0	0	0	0	0	1		9	9	4	cloud	wind	5	12	25	37	0	0	0	8	4969	357.7679999999999722604	688	0	163
6.6.1	mac	0	2023-09-15	15:22:18	1	1	1	experiment	1	dispFeedback_noU	2	750	1000	530	310			29	dynamic	POS	1	145	0.6999999999999999556	101.5	145	168	0.5050116080103934646	2	5	15		30pct	40	5	2		0	0	0	0	0	0	2	0	0	0	0	0	0	0	2	0	0	0	0	0	0	0	0	0	0	0	0	0	1		9	9	4	cloud	wind	5	12	25	37	0	0	0	9	4996	359.7119999999999890861	833	0	168
6.6.1	mac	0	2023-09-15	15:22:18	1	1	1	experiment	1	experiment_noU	2	750	2641	370	340			21	dynamic	POS	1					168		2	5	15		30pct	40	5	2		0	0	0	0	0	0	2	0	0	0	0	0	0	0	2	0	0	0	0	0	0	0	0	0	0	0	0	0	1		10	10	4	cloud	wind	5	12	25	37	0	0	0	9	4996	359.7119999999999890861	833	0	168
6.6.1	mac	0	2023-09-15	15:22:18	1	1	1	experiment	1	dispFeedback_noU	2	750	1000	370	340			21	dynamic	POS	1	140	0.6999999999999999556	98	140	150	0.0278412292310598365	2	5	15		30pct	40	5	2		0	0	0	0	0	0	2	0	0	0	0	0	0	0	2	0	0	0	0	0	0	0	0	0	0	0	0	0	1		10	10	4	cloud	wind	5	12	25	37	0	0	0	10	4941	355.7520000000000095497	973	0	150
6.6.1	mac	0	2023-09-15	15:22:18	1	1	1	experiment	1	experiment_noU	2	750	2336	540	180			26	dynamic	POS	1					150		2	5	15		30pct	40	5	2		0	0	0	0	0	0	2	0	0	0	0	0	0	0	2	0	0	0	0	0	0	0	0	0	0	0	0	0	1		11	11	4	cloud	wind	5	12	25	37	0	0	0	10	4941	355.7520000000000095497	973	0	150
6.6.1	mac	0	2023-09-15	15:22:18	1	1	1	experiment	1	dispFeedback_noU	2	750	1000	540	180			26	dynamic	POS	1	105	0.6999999999999999556	73.5	105	102	0.4077605117130467249	2	5	15		30pct	40	5	2		0	0	0	0	0	0	2	0	0	0	0	0	0	0	2	0	0	0	0	0	0	0	0	0	0	0	0	0	1		11	11	4	cloud	wind	5	12	25	37	0	0	0	11	4886	351.7919999999999731699	1078	0	102
6.6.1	mac	0	2023-09-15	15:22:18	1	1	1	experiment	1	experiment_U	2	750	4780	200	240			75	dynamic	POS	1					102		2	5	15		30pct	40	5	2		0	0	0	0	0	0	2	0	0	0	0	0	0	0	2	0	0	1	0	0	0	0	0	0	0	0	0	0	1		12	12	4	cloud	wind	5	12	25	37	0	0	0	11	4886	351.7919999999999731699	1078	0	102
6.6.1	mac	0	2023-09-15	15:22:18	1	1	1	experiment	1	dispFeedback_U	2	750	1000	200	240			75	dynamic	POS	1	75	0.6999999999999999556	52.5	1	10	0.7726301410637400613	2	5	15		30pct	40	5	2		0	0	0	0	0	0	2	0	0	0	0	0	0	0	2	0	0	1	0	0	0	0	0	0	0	0	0	0	1		12	12	4	cloud	wind	5	12	25	37	0	0	0	12	4780	344.1600000000000250111	1079	0	10
6.6.1	mac	0	2023-09-15	15:22:18	1	1	1	experiment	1	experiment_U	2	750	3297	380	410			9	dynamic	POS	1					10		2	5	15		30pct	40	5	2	90	0	0	0	0	0	0	2	0	0	0	0	0	0	0	2	0	0	2	0	0	0	0	0	0	0	0	0	0	1		13	13	5	cloud	wind	5	12	25	37	0	0	2	12	4780	344.1600000000000250111	1079	0	10
6.6.1	mac	0	2023-09-15	15:22:18	1	1	1	experiment	1	dispFeedback_U	2	750	1000	380	410			9	dynamic	POS	1	122	0.6999999999999999556	85.3999999999999914735	122	131	0.3824457815807419392	2	5	15		30pct	0	5	2	90	0	0	0	0	0	0	2	0	0	0	0	0	0	0	2	0	1	2	0	0	0	0	0	0	0	0	0	0	1		13	13	5	cloud	wind	5	12	25	37	0	0	2	13	4997	359.7839999999999918145	1201	0	131
6.6.1	mac	0	2023-09-15	15:22:18	1	1	1	experiment	1	experiment_U	2	750	4996	510	350			76	dynamic	POS	1					131		2	5	15		30pct	0	5	2	90	0	0	0	0	0	0	2	0	0	0	0	0	0	0	2	0	1	3	0	0	0	0	0	0	0	0	0	0	1		14	14	6	cloud	wind	5	12	25	37	0	0	2	13	4997	359.7839999999999918145	1201	0	131
6.6.1	mac	0	2023-09-15	15:22:18	1	1	1	experiment	1	dispFeedback_U	2	750	1000	510	350			76	dynamic	POS	1	120	0.6999999999999999556	84	1	10	0.8815173876661615004	2	5	15		30pct	0	5	2	90	0	0	0	0	0	0	2	0	0	0	0	0	0	0	2	0	2	3	0	0	0	0	0	0	0	0	0	0	1		14	14	6	cloud	wind	5	12	25	37	0	0	2	14	46	3.311999999999999833	1202	0	10
6.6.1	mac	0	2023-09-15	15:22:18	1	1	1	experiment	1	experiment_U	2	750	3610	340	260			97	dynamic	POS	1					10		2	5	15		30pct	0	5	2	90	0	0	0	0	0	0	2	0	0	0	0	0	0	0	2	0	2	4	0	0	0	0	0	0	0	0	0	0	1		15	15	7	cloud	wind	5	12	25	37	0	0	2	14	46	3.311999999999999833	1202	0	10
6.6.1	mac	0	2023-09-15	15:22:18	1	1	1	experiment	1	dispFeedback_U	2	750	1000	340	260			97	dynamic	POS	1	44	0.6999999999999999556	30.7999999999999971578	1	10	0.7421729608304270531	2	5	15		30pct	0	5	2	90	0	0	0	0	0	0	2	0	0	0	0	0	0	0	2	0	3	4	0	0	0	0	0	0	0	0	0	0	1		15	15	7	cloud	wind	5	12	25	37	0	0	2	15	4710	339.1200000000000045475	1203	0	10
6.6.1	mac	0	2023-09-15	15:22:18	1	1	1	experiment	1	experiment_U	2	750	804	350	430			70	dynamic	POS	1					10		2	5	15		30pct	0	5	2	90	0	0	0	0	0	0	2	0	0	0	0	0	0	0	2	0	3	5	0	0	0	0	0	0	0	0	0	0	1		16	16	8	cloud	wind	5	12	25	37	0	0	2	15	4710	339.1200000000000045475	1203	0	10
6.6.1	mac	0	2023-09-15	15:22:18	1	1	1	experiment	1	dispFeedback_U	2	750	1000	350	430			70	dynamic	POS	1	154	0.6999999999999999556	107.7999999999999971578	154	142	0.4021497067069051967	2	5	15		30pct	0	5	2	90	0	0	0	0	0	0	2	0	0	0	0	0	0	0	2	0	4	5	0	0	0	0	0	0	0	0	0	0	1		16	16	8	cloud	wind	5	12	25	37	0	0	2	16	554	39.8879999999999981242	1357	0	142
6.6.1	mac	0	2023-09-15	15:22:18	1	1	1	experiment	1	experiment_U	2	750	4360	270	100			98	dynamic	POS	1					142		2	5	15		30pct	0	5	2	90	0	0	0	0	0	0	2	0	0	0	0	0	0	0	2	0	4	6	0	0	0	0	0	0	0	0	0	0	1		17	17	9	cloud	wind	5	12	25	37	0	0	2	16	554	39.8879999999999981242	1357	0	142
6.6.1	mac	0	2023-09-15	15:22:18	1	1	1	experiment	1	dispFeedback_U	2	750	1000	270	100			98	dynamic	POS	1	154	0.6999999999999999556	107.7999999999999971578	154	146	0.3536503765158472423	2	5	15		30pct	0	5	2	90	0	0	0	0	0	0	2	0	0	0	0	0	0	0	2	0	5	6	0	0	0	0	0	0	0	0	0	0	1		17	17	9	cloud	wind	5	12	25	37	0	0	2	17	510	36.7199999999999988631	1511	0	146
6.6.1	mac	0	2023-09-15	15:22:18	1	1	1	experiment	1	experiment_U	2	750	1330	210	150			60	dynamic	POS	1					146		2	5	15		30pct	0	5	2	90	0	0	0	0	0	0	2	0	0	0	0	0	0	0	2	0	5	7	0	0	0	0	0	0	0	0	0	0	1		18	18	10	cloud	wind	5	12	25	37	0	0	2	17	510	36.7199999999999988631	1511	0	146
6.6.1	mac	0	2023-09-15	15:22:18	1	1	1	experiment	1	dispFeedback_U	2	750	1000	210	150			60	dynamic	POS	1	146	0.6999999999999999556	102.1999999999999886313	1	10	0.7425584173161905444	2	5	15		30pct	0	5	2	90	0	0	0	0	0	0	2	0	0	0	0	0	0	0	2	0	6	7	0	0	0	0	0	0	0	0	0	0	1		18	18	10	cloud	wind	5	12	25	37	0	0	2	18	580	41.7599999999999980105	1512	0	10
6.6.1	mac	0	2023-09-15	15:22:18	1	1	1	experiment	1	experiment_noU	2	750	1987	470	270			47	dynamic	POS	1					10		2	5	15		30pct	0	5	2		0	0	0	0	0	0	2	0	0	0	0	0	0	0	2	0	6	0	0	0	0	0	0	0	0	0	0	0	1		19	19	11	cloud	wind	5	12	25	37	0	0	0	18	580	41.7599999999999980105	1512	0	10
6.6.1	mac	0	2023-09-15	15:22:18	1	1	1	experiment	1	dispFeedback_noU	2	750	1000	470	270			47	dynamic	POS	1	154	0.6999999999999999556	107.7999999999999971578	1	10	0.8241620033104349874	2	5	15		30pct	0	5	2		0	0	0	0	0	0	2	0	0	0	0	0	0	0	2	0	6	0	0	0	0	0	0	0	0	0	0	0	1		19	19	11	cloud	wind	5	12	25	37	0	0	0	19	587	42.264000000000002899	1513	0	10
6.6.1	mac	0	2023-09-15	15:22:18	1	1	1	experiment	1	experiment_noU	2	750	3626	480	390			18	dynamic	POS	1					10		2	5	15		30pct	0	5	2		0	0	0	0	0	0	2	0	0	0	0	0	0	0	2	0	6	0	0	0	0	0	0	0	0	0	0	0	1		20	20	11	cloud	wind	5	12	25	37	0	0	0	19	587	42.264000000000002899	1513	0	10
6.6.1	mac	0	2023-09-15	15:22:18	1	1	1	experiment	1	dispFeedback_noU	2	750	1000	480	390			18	dynamic	POS	1	140	0.6999999999999999556	98	140	136	0.4032642395243198341	2	5	15		30pct	0	5	2		0	0	0	0	0	0	2	0	0	0	0	0	0	0	2	0	6	0	0	0	0	0	0	0	0	0	0	0	1		20	20	11	cloud	wind	5	12	25	37	0	0	0	20	776	55.8719999999999998863	1653	0	136
6.6.1	mac	0	2023-09-15	15:22:18	1	1	1	experiment	1	experiment_noU	2	750	2325	250	420			40	dynamic	POS	1					136		2	5	15		30pct	0	5	2		0	0	0	0	0	0	2	0	0	0	0	0	0	0	2	0	6	0	0	0	0	0	0	0	0	0	0	0	1		21	21	11	cloud	wind	5	12	25	37	0	0	0	20	776	55.8719999999999998863	1653	0	136
6.6.1	mac	0	2023-09-15	15:22:18	1	1	1	experiment	1	dispFeedback_noU	2	750	1000	250	420			40	dynamic	POS	1	154	0.6999999999999999556	107.7999999999999971578	154	131	0.5305267664442133713	2	5	15		30pct	0	5	2		0	0	0	0	0	0	2	0	0	0	0	0	0	0	2	0	6	0	0	0	0	0	0	0	0	0	0	0	1		21	21	11	cloud	wind	5	12	25	37	0	0	0	21	575	41.3999999999999985789	1807	0	131
6.6.1	mac	0	2023-09-15	15:22:18	1	1	1	experiment	1	experiment_noU	2	750	1848	520	460			48	dynamic	POS	1					131		2	5	15		30pct	0	5	2		0	0	0	0	0	0	2	0	0	0	0	0	0	0	2	0	6	0	0	0	0	0	0	0	0	0	0	0	1		22	22	11	cloud	wind	5	12	25	37	0	0	0	21	575	41.3999999999999985789	1807	0	131
6.6.1	mac	0	2023-09-15	15:22:18	1	1	1	experiment	1	dispFeedback_noU	2	750	1000	520	460			48	dynamic	POS	1	154	0.6999999999999999556	107.7999999999999971578	154	162	0.3475372806069295106	2	5	15		30pct	0	5	2		0	0	0	0	0	0	2	0	0	0	0	0	0	0	2	0	6	0	0	0	0	0	0	0	0	0	0	0	1		22	22	11	cloud	wind	5	12	25	37	0	0	0	22	498	35.8560000000000016485	1961	0	162
6.6.1	mac	0	2023-09-15	15:22:18	1	1	1	experiment	1	experiment_noU	2	750	577	290	220			74	dynamic	POS	1					162		2	5	15		30pct	0	5	2		0	0	0	0	0	0	2	0	0	0	0	0	0	0	2	0	6	0	0	0	0	0	0	0	0	0	0	0	1		23	23	11	cloud	wind	5	12	25	37	0	0	0	22	498	35.8560000000000016485	1961	0	162
6.6.1	mac	0	2023-09-15	15:22:18	1	1	1	experiment	1	dispFeedback_noU	2	750	1000	290	220			74	dynamic	POS	1	152	0.6999999999999999556	106.3999999999999914735	152	176	0.2124005731224083704	2	5	15		30pct	0	5	2		0	0	0	0	0	0	2	0	0	0	0	0	0	0	2	0	6	0	0	0	0	0	0	0	0	0	0	0	1		23	23	11	cloud	wind	5	12	25	37	0	0	0	23	527	37.9440000000000026148	2113	0	176
6.6.1	mac	0	2023-09-15	15:22:18	1	1	1	experiment	1	experiment_noU	2	750	1304	360	380			59	dynamic	POS	1					176		2	5	15		30pct	0	5	2		0	0	0	0	0	0	2	0	0	0	0	0	0	0	2	0	6	0	0	0	0	0	0	0	0	0	0	0	1		24	24	11	cloud	wind	5	12	25	37	0	0	0	23	527	37.9440000000000026148	2113	0	176
6.6.1	mac	0	2023-09-15	15:22:18	1	1	1	experiment	1	dispFeedback_noU	2	750	1000	360	380			59	dynamic	POS	1	146	0.6999999999999999556	102.1999999999999886313	1	10	0.784187991587488864	2	5	15		30pct	0	5	2		0	0	0	0	0	0	2	0	0	0	0	0	0	0	2	0	6	0	0	0	0	0	0	0	0	0	0	0	1		24	24	11	cloud	wind	5	12	25	37	0	0	0	24	504	36.2879999999999967031	2114	0	10
6.6.1	mac	0	2023-09-15	15:22:18	1	1	1	experiment	1	experiment_U	2	750	4226	410	300			1	dynamic	POS	1					10		2	5	15		30pct	0	5	2		0	0	0	0	0	0	2	0	0	0	0	0	0	0	2	0	6	0	0	1	0	0	0	0	0	0	0	0	1		25	25	11	cloud	wind	5	12	25	37	0	0	0	24	504	36.2879999999999967031	2114	0	10
6.6.1	mac	0	2023-09-15	15:22:18	1	1	1	experiment	1	dispFeedback_U	2	750	1000	410	300			1	dynamic	POS	1	137	0.6999999999999999556	95.8999999999999914735	1	10	0.9065527431449277307	2	5	15		30pct	0	5	2		0	0	0	0	0	0	2	0	0	0	0	0	0	0	2	0	6	0	0	1	0	0	0	0	0	0	0	0	1		25	25	11	cloud	wind	5	12	25	37	0	0	0	25	526	37.8719999999999998863	2115	0	10
6.6.1	mac	0	2023-09-15	15:22:18	1	1	1	experiment	1	experiment_noU	2	750	2651	440	440			29	dynamic	POS	1					10		2	5	15		30pct	0	5	2		0	0	0	0	0	0	2	0	0	0	0	0	0	0	2	0	6	0	0	0	0	0	0	0	0	0	0	0	1		26	26	12	cloud	wind	5	12	25	37	0	0	0	25	526	37.8719999999999998863	2115	0	10
6.6.1	mac	0	2023-09-15	15:22:18	1	1	1	experiment	1	dispFeedback_noU	2	750	1000	440	440			29	dynamic	POS	1	142	0.6999999999999999556	99.3999999999999914735	1	10	0.8552530677652110391	2	5	15		30pct	0	5	2		0	0	0	0	0	0	2	0	0	0	0	0	0	0	2	0	6	0	0	0	0	0	0	0	0	0	0	0	1		26	26	12	cloud	wind	5	12	25	37	0	0	0	26	351	25.2719999999999984652	2116	0	10
6.6.1	mac	0	2023-09-15	15:22:18	1	1	1	experiment	1	experiment_U	2	750	1966	460	250			29	dynamic	POS	1					10		2	5	15		30pct	0	5	2		0	0	0	0	0	0	2	0	0	0	0	0	0	0	2	0	6	0	0	1	0	0	0	0	0	0	0	0	1		27	27	12	cloud	wind	5	12	25	37	0	0	0	26	351	25.2719999999999984652	2116	0	10
6.6.1	mac	0	2023-09-15	15:22:18	1	1	1	experiment	1	dispFeedback_U	2	750	1000	460	250			29	dynamic	POS	1	58	0.6999999999999999556	40.5999999999999943157	58	63	0.4356640450273789322	2	5	15		30pct	0	5	2		0	0	0	0	0	0	2	0	0	0	0	0	0	0	2	0	6	0	0	1	0	0	0	0	0	0	0	0	1		27	27	12	cloud	wind	5	12	25	37	0	0	0	27	4666	335.951999999999998181	2174	0	63
6.6.1	mac	0	2023-09-15	15:22:18	1	1	1	experiment	1	experiment_noU	2	750	4456	590	490			76	dynamic	POS	1					63		2	5	15		30pct	0	5	2		0	0	0	0	0	0	2	0	0	0	0	0	0	0	2	0	6	0	0	0	0	0	0	0	0	0	0	0	1		28	28	13	cloud	wind	5	12	25	37	0	0	0	27	4666	335.951999999999998181	2174	0	63
6.6.1	mac	0	2023-09-15	15:22:18	1	1	1	experiment	1	dispFeedback_noU	2	750	1000	590	490			76	dynamic	POS	1	41	0.6999999999999999556	28.6999999999999992895	1	10	0.9154392077856322585	2	5	15		30pct	0	5	2		0	0	0	0	0	0	2	0	0	0	0	0	0	0	2	0	6	0	0	0	0	0	0	0	0	0	0	0	1		28	28	13	cloud	wind	5	12	25	37	0	0	0	28	4506	324.4320000000000163709	2175	0	10
6.6.1	mac	0	2023-09-15	15:22:18	1	1	1	experiment	1	experiment_U	2	750	1348	420	230			92	dynamic	POS	1					10		2	5	15		30pct	0	5	2		0	0	0	0	0	0	2	0	0	0	0	0	0	0	2	0	6	0	0	1	0	0	0	0	0	0	0	0	1		29	29	13	cloud	wind	5	12	25	37	0	0	0	28	4506	324.4320000000000163709	2175	0	10
6.6.1	mac	0	2023-09-15	15:22:18	1	1	1	experiment	1	dispFeedback_U	2	750	1000	420	230			92	dynamic	POS	1	39	0.6999999999999999556	27.2999999999999971578	39	43	0.631238232280881717	2	5	15		30pct	0	5	2		0	0	0	0	0	0	2	0	0	0	0	0	0	0	2	0	6	0	0	1	0	0	0	0	0	0	0	0	1		29	29	13	cloud	wind	5	12	25	37	0	0	0	29	2198	158.2560000000000002274	2214	0	43
6.6.1	mac	0	2023-09-15	15:22:18	1	1	1	experiment	1	experiment_noU	2	750	4086	400	480			55	dynamic	POS	1					43		2	5	15		30pct	0	5	2		0	0	0	0	0	0	2	0	0	0	0	0	0	0	2	0	6	0	0	0	0	0	0	0	0	0	0	0	1		30	30	14	cloud	wind	5	12	25	37	0	0	0	29	2198	158.2560000000000002274	2214	0	43
6.6.1	mac	0	2023-09-15	15:22:18	1	1	1	experiment	1	dispFeedback_noU	2	750	1000	400	480			55	dynamic	POS	1	31	0.6999999999999999556	21.6999999999999992895	31	34	0.1561805918245065539	2	5	15		30pct	0	5	2		0	0	0	0	0	0	2	0	0	0	0	0	0	0	2	0	6	0	0	0	0	0	0	0	0	0	0	0	1		30	30	14	cloud	wind	5	12	25	37	0	0	0	30	3086	222.192000000000007276	2245	0	34
6.6.1	mac	0	2023-09-15	15:22:18	1	1	1	experiment	1	experiment_U	2	750	1695	240	170			82	dynamic	POS	1					34		2	5	15		30pct	0	5	2		0	0	0	0	0	0	2	0	0	0	0	0	0	0	2	0	6	0	0	1	0	0	0	0	0	0	0	0	1		31	31	14	cloud	wind	5	12	25	37	0	0	0	30	3086	222.192000000000007276	2245	0	34
6.6.1	mac	0	2023-09-15	15:22:18	1	1	1	experiment	1	dispFeedback_U	2	750	1000	240	170			82	dynamic	POS	1	38	0.6999999999999999556	26.5999999999999978684	38	42	0.2451367681485453476	2	5	15		30pct	0	5	2		0	0	0	0	0	0	2	0	0	0	0	0	0	0	2	0	6	0	0	1	0	0	0	0	0	0	0	0	1		31	31	14	cloud	wind	5	12	25	37	0	0	0	31	2045	147.2400000000000090949	2283	0	42
6.6.1	mac	0	2023-09-15	15:22:18	1	1	1	experiment	1	experiment_noU	2	750	2103	390	360			11	dynamic	POS	1					42		2	5	15		30pct	0	5	2		0	0	0	0	0	0	2	0	0	0	0	0	0	0	2	0	6	0	0	0	0	0	0	0	0	0	0	0	1		32	32	15	cloud	wind	5	12	25	37	0	0	0	31	2045	147.2400000000000090949	2283	0	42
6.6.1	mac	0	2023-09-15	15:22:18	1	1	1	experiment	1	dispFeedback_noU	2	750	1000	390	360			11	dynamic	POS	1	21	0.6999999999999999556	14.6999999999999992895	21	21	0.1842515881136645439	2	5	15		30pct	0	5	2		0	0	0	0	0	0	2	0	0	0	0	0	0	0	2	0	6	0	0	0	0	0	0	0	0	0	0	0	1		32	32	15	cloud	wind	5	12	25	37	0	0	0	32	3903	281.0160000000000195541	2304	0	21
6.6.1	mac	0	2023-09-15	15:22:18	1	1	1	experiment	1	experiment_noU	2	750	429	500	330			62	dynamic	POS	1					21		2	5	15		30pct	0	5	2		0	0	0	0	0	0	2	0	0	0	0	0	0	0	2	0	6	0	0	0	0	0	0	0	0	0	0	0	1		33	33	15	cloud	wind	5	12	25	37	0	0	0	32	3903	281.0160000000000195541	2304	0	21
6.6.1	mac	0	2023-09-15	15:22:18	1	1	1	experiment	1	dispFeedback_noU	2	750	1000	500	330			62	dynamic	POS	1	54	0.6999999999999999556	37.7999999999999971578	54	51	0.055237515376703232	2	5	15		30pct	0	5	2		0	0	0	0	0	0	2	0	0	0	0	0	0	0	2	0	6	0	0	0	0	0	0	0	0	0	0	0	1		33	33	15	cloud	wind	5	12	25	37	0	0	0	33	4779	344.0880000000000222826	2358	0	51
6.6.1	mac	0	2023-09-15	15:22:18	1	1	1	experiment	1	experiment_noU	2	750	1035	430	190			63	dynamic	POS	1					51		2	5	15		30pct	0	5	2		0	0	0	0	0	0	2	0	0	0	0	0	0	0	2	0	6	0	0	0	0	0	0	0	0	0	0	0	1		34	34	15	cloud	wind	5	12	25	37	0	0	0	33	4779	344.0880000000000222826	2358	0	51
6.6.1	mac	0	2023-09-15	15:22:18	1	1	1	experiment	1	dispFeedback_noU	2	750	1000	430	190			63	dynamic	POS	1	93	0.6999999999999999556	65.0999999999999943157	1	10	0.8835233153969802578	2	5	15		30pct	0	5	2		0	0	0	0	0	0	2	0	0	0	0	0	0	0	2	0	6	0	0	0	0	0	0	0	0	0	0	0	1		34	34	15	cloud	wind	5	12	25	37	0	0	0	34	435	31.3200000000000002842	2359	0	10
6.6.1	mac	0	2023-09-15	15:22:18	1	1	1	experiment	1	experiment_noU	2	750	3434	600	130			28	dynamic	POS	1					10		2	5	15		30pct	0	5	2		0	0	0	0	0	0	2	0	0	0	0	0	0	0	2	0	6	0	0	0	0	0	0	0	0	0	0	0	1		35	35	15	cloud	wind	5	12	25	37	0	0	0	34	435	31.3200000000000002842	2359	0	10
6.6.1	mac	0	2023-09-15	15:22:18	1	1	1	experiment	1	dispFeedback_noU	2	750	1000	600	130			28	dynamic	POS	1	58	0.6999999999999999556	40.5999999999999943157	1	10	0.8441518968539666323	2	5	15		30pct	0	5	2		0	0	0	0	0	0	2	0	0	0	0	0	0	0	2	0	6	0	0	0	0	0	0	0	0	0	0	0	1		35	35	15	cloud	wind	5	12	25	37	0	0	0	35	1084	78.048000000000001819	2360	0	10
6.6.1	mac	0	2023-09-15	15:22:18	1	1	1	experiment	1	experiment_noU	2	750	2722	560	320			63	dynamic	POS	1					10		2	5	15		30pct	0	5	2		0	0	0	0	0	0	2	0	0	0	0	0	0	0	2	0	6	0	0	0	0	0	0	0	0	0	0	0	1		36	36	15	cloud	wind	5	12	25	37	0	0	0	35	1084	78.048000000000001819	2360	0	10
6.6.1	mac	0	2023-09-15	15:22:18	1	1	1	experiment	1	dispFeedback_noU	2	750	1000	560	320			63	dynamic	POS	1	44	0.6999999999999999556	30.7999999999999971578	1	10	0.7905415554508896658	2	5	15		30pct	0	5	2		0	0	0	0	0	0	2	0	0	0	0	0	0	0	2	0	6	0	0	0	0	0	0	0	0	0	0	0	1		36	36	15	cloud	wind	5	12	25	37	0	0	0	36	2122	152.7839999999999918145	2361	0	10
6.6.1	mac	0	2023-09-15	15:22:18	1	1	1	experiment	1	experiment_U	2	750	2224	260	110			17	dynamic	POS	1					10		2	5	15		30pct	0	5	2		0	0	0	0	0	0	2	0	0	0	0	0	0	0	2	0	6	0	0	0	0	1	0	0	0	0	0	0	1		37	37	15	cloud	wind	5	12	25	37	0	0	0	36	2122	152.7839999999999918145	2361	0	10
6.6.1	mac	0	2023-09-15	15:22:18	1	1	1	experiment	1	dispFeedback_U	2	750	1000	260	110			17	dynamic	POS	1	41	0.6999999999999999556	28.6999999999999992895	41	39	0.5890643828523030034	2	5	15		30pct	0	5	2		0	0	0	0	0	0	2	0	0	0	0	0	0	0	2	0	6	0	0	0	0	1	0	0	0	0	0	0	1		37	37	15	cloud	wind	5	12	25	37	0	0	0	37	4324	311.3279999999999745341	2402	0	39
6.6.1	mac	0	2023-09-15	15:22:18	1	1	1	experiment	1	experiment_noU	2	750	639	300	370			73	dynamic	POS	1					39		2	5	15		30pct	0	5	2		0	0	0	0	0	0	2	0	0	0	0	0	0	0	2	0	6	0	0	0	0	0	0	0	0	0	0	0	1		38	38	16	cloud	wind	5	12	25	37	0	0	0	37	4324	311.3279999999999745341	2402	0	39
6.6.1	mac	0	2023-09-15	15:22:18	1	1	1	experiment	1	dispFeedback_noU	2	750	1000	300	370			73	dynamic	POS	1	69	0.6999999999999999556	48.2999999999999971578	69	63	0.3986684452739238105	2	5	15		30pct	0	5	2		0	0	0	0	0	0	2	0	0	0	0	0	0	0	2	0	6	0	0	0	0	0	0	0	0	0	0	0	1		38	38	16	cloud	wind	5	12	25	37	0	0	0	38	539	38.8079999999999998295	2471	0	63
6.6.1	mac	0	2023-09-15	15:22:18	1	1	1	experiment	1	experiment_U	2	750	4057	320	470			8	dynamic	POS	1					63		2	5	15		30pct	0	5	2		0	0	0	0	0	0	2	0	0	0	0	0	0	0	2	0	6	0	0	0	0	1	0	0	0	0	0	0	1		39	39	16	cloud	wind	5	12	25	37	0	0	0	38	539	38.8079999999999998295	2471	0	63
6.6.1	mac	0	2023-09-15	15:22:18	1	1	1	experiment	1	dispFeedback_U	2	750	1000	320	470			8	dynamic	POS	1	48	0.6999999999999999556	33.5999999999999943157	48	42	0.5570113471609100531	2	5	15		30pct	0	5	2		0	0	0	0	0	0	2	0	0	0	0	0	0	0	2	0	6	0	0	0	0	1	0	0	0	0	0	0	1		39	39	16	cloud	wind	5	12	25	37	0	0	0	39	707	50.9040000000000034674	2519	0	42
6.6.1	mac	0	2023-09-15	15:22:18	1	1	1	experiment	1	experiment_noU	2	750	1491	280	500			53	dynamic	POS	1					42		2	5	15		30pct	0	5	2		0	0	0	0	0	0	2	0	0	0	0	0	0	0	2	0	6	0	0	0	0	0	0	0	0	0	0	0	1		40	40	17	cloud	wind	5	12	25	37	0	0	0	39	707	50.9040000000000034674	2519	0	42
6.6.1	mac	0	2023-09-15	15:22:18	1	1	1	experiment	1	dispFeedback_noU	2	750	1000	280	500			53	dynamic	POS	1	46	0.6999999999999999556	32.1999999999999957367	1	10	0.9148258042789124689	2	5	15		30pct	0	5	2		0	0	0	0	0	0	2	0	0	0	0	0	0	0	2	0	6	0	0	0	0	0	0	0	0	0	0	0	1		40	40	17	cloud	wind	5	12	25	37	0	0	0	40	391	28.1520000000000010232	2520	0	10
6.6.1	mac	0	2023-09-15	15:22:18	1	1	1	experiment	1	experiment_U	2	750	3855	450	140			10	dynamic	POS	1					10		2	5	15		30pct	0	5	2		0	0	0	0	0	0	2	0	0	0	0	0	0	0	2	0	6	0	0	0	0	1	0	0	0	0	0	0	1		41	41	17	cloud	wind	5	12	25	37	0	0	0	40	391	28.1520000000000010232	2520	0	10
6.6.1	mac	0	2023-09-15	15:22:18	1	1	1	experiment	1	dispFeedback_U	2	750	1000	450	140			10	dynamic	POS	1	45	0.6999999999999999556	31.4999999999999964473	45	40	0.0221586478925679467	2	5	15		30pct	0	5	2		0	0	0	0	0	0	2	0	0	0	0	0	0	0	2	0	6	0	0	0	0	1	0	0	0	0	0	0	1		41	41	17	cloud	wind	5	12	25	37	0	0	0	41	605	43.5600000000000022737	2565	0	40
6.6.1	mac	0	2023-09-15	15:22:18	1	1	1	experiment	1	experiment_noU	2	750	612	380	130			73	dynamic	POS	1					40		2	5	15		30pct	0	5	2		0	0	0	0	0	0	2	0	0	0	0	0	0	0	2	0	6	0	0	0	0	0	0	0	0	0	0	0	1		42	42	18	cloud	wind	5	12	25	37	0	0	0	41	605	43.5600000000000022737	2565	0	40
6.6.1	mac	0	2023-09-15	15:22:18	1	1	1	experiment	1	dispFeedback_noU	2	750	1000	380	130			73	dynamic	POS	1	42	0.6999999999999999556	29.3999999999999985789	42	42	0.6334874570913350267	2	5	15		30pct	0	5	2		0	0	0	0	0	0	2	0	0	0	0	0	0	0	2	0	6	0	0	0	0	0	0	0	0	0	0	0	1		42	42	18	cloud	wind	5	12	25	37	0	0	0	42	512	36.8639999999999972147	2607	0	42
6.6.1	mac	0	2023-09-15	15:22:18	1	1	1	experiment	1	experiment_U	2	750	2715	580	440			83	dynamic	POS	1					42		2	5	15		30pct	0	5	2		0	0	0	0	0	0	2	0	0	0	0	0	0	0	2	0	6	0	0	0	0	1	0	0	0	0	0	0	1		43	43	18	cloud	wind	5	12	25	37	0	0	0	42	512	36.8639999999999972147	2607	0	42
6.6.1	mac	0	2023-09-15	15:22:18	1	1	1	experiment	1	dispFeedback_U	2	750	1000	580	440			83	dynamic	POS	1	63	0.6999999999999999556	44.0999999999999943157	63	68	0.3631646289404399375	2	5	15		30pct	0	5	2		0	0	0	0	0	0	2	0	0	0	0	0	0	0	2	0	6	0	0	0	0	1	0	0	0	0	0	0	1		43	43	18	cloud	wind	5	12	25	37	0	0	0	43	3115	224.2800000000000011369	2670	0	68
6.6.1	mac	0	2023-09-15	15:22:18	1	1	1	experiment	1	experiment_noU	2	750	3884	550	340			67	dynamic	POS	1					68		2	5	15		30pct	0	5	2		0	0	0	0	0	0	2	0	0	0	0	0	0	0	2	0	6	0	0	0	0	0	0	0	0	0	0	0	1		44	44	19	cloud	wind	5	12	25	37	0	0	0	43	3115	224.2800000000000011369	2670	0	68
6.6.1	mac	0	2023-09-15	15:22:18	1	1	1	experiment	1	dispFeedback_noU	2	750	1000	550	340			67	dynamic	POS	1	104	0.6999999999999999556	72.7999999999999971578	1	10	0.705936914939884308	2	5	15		30pct	0	5	2		0	0	0	0	0	0	2	0	0	0	0	0	0	0	2	0	6	0	0	0	0	0	0	0	0	0	0	0	1		44	44	19	cloud	wind	5	12	25	37	0	0	0	44	3484	250.8480000000000131877	2671	0	10
6.6.1	mac	0	2023-09-15	15:22:18	1	1	1	experiment	1	experiment_noU	2	750	872	560	470			24	dynamic	POS	1					10		2	5	15		30pct	0	5	2		0	0	0	0	0	0	2	0	0	0	0	0	0	0	2	0	6	0	0	0	0	0	0	0	0	0	0	0	1		45	45	19	cloud	wind	5	12	25	37	0	0	0	44	3484	250.8480000000000131877	2671	0	10
6.6.1	mac	0	2023-09-15	15:22:18	1	1	1	experiment	1	dispFeedback_noU	2	750	1000	560	470			24	dynamic	POS	1	95	0.6999999999999999556	66.5	95	108	0.0892931004262746131	2	5	15		30pct	0	5	2		0	0	0	0	0	0	2	0	0	0	0	0	0	0	2	0	6	0	0	0	0	0	0	0	0	0	0	0	1		45	45	19	cloud	wind	5	12	25	37	0	0	0	45	3322	239.1839999999999974989	2766	0	108
6.6.1	mac	0	2023-09-15	15:22:18	1	1	1	experiment	1	experiment_noU	2	750	4409	470	190			50	dynamic	POS	1					108		2	5	15		30pct	0	5	2		0	0	0	0	0	0	2	0	0	0	0	0	0	0	2	0	6	0	0	0	0	0	0	0	0	0	0	0	1		46	46	19	cloud	wind	5	12	25	37	0	0	0	45	3322	239.1839999999999974989	2766	0	108
6.6.1	mac	0	2023-09-15	15:22:18	1	1	1	experiment	1	dispFeedback_noU	2	750	1000	470	190			50	dynamic	POS	1	101	0.6999999999999999556	70.6999999999999886313	101	105	0.0149435715318991733	2	5	15		30pct	0	5	2		0	0	0	0	0	0	2	0	0	0	0	0	0	0	2	0	6	0	0	0	0	0	0	0	0	0	0	0	1		46	46	19	cloud	wind	5	12	25	37	0	0	0	46	3159	227.4480000000000075033	2867	0	105
6.6.1	mac	0	2023-09-15	15:22:18	1	1	1	experiment	1	experiment_noU	2	750	3807	250	500			62	dynamic	POS	1					105		2	5	15		30pct	0	5	2		0	0	0	0	0	0	2	0	0	0	0	0	0	0	2	0	6	0	0	0	0	0	0	0	0	0	0	0	1		47	47	19	cloud	wind	5	12	25	37	0	0	0	46	3159	227.4480000000000075033	2867	0	105
6.6.1	mac	0	2023-09-15	15:22:18	1	1	1	experiment	1	dispFeedback_noU	2	750	1000	250	500			62	dynamic	POS	1	117	0.6999999999999999556	81.8999999999999914735	1	10	0.9414190170218746934	2	5	15		30pct	0	5	2		0	0	0	0	0	0	2	0	0	0	0	0	0	0	2	0	6	0	0	0	0	0	0	0	0	0	0	0	1		47	47	19	cloud	wind	5	12	25	37	0	0	0	47	3157	227.3040000000000020464	2868	0	10
6.6.1	mac	0	2023-09-15	15:22:18	1	1	1	experiment	1	experiment_noU	2	750	827	290	280			23	dynamic	POS	1					10		2	5	15		30pct	0	5	2		0	0	0	0	0	0	2	0	0	0	0	0	0	0	2	0	6	0	0	0	0	0	0	0	0	0	0	0	1		48	48	19	cloud	wind	5	12	25	37	0	0	0	47	3157	227.3040000000000020464	2868	0	10
6.6.1	mac	0	2023-09-15	15:22:18	1	1	1	experiment	1	dispFeedback_noU	2	750	1000	290	280			23	dynamic	POS	1	139	0.6999999999999999556	97.2999999999999971578	139	148	0.3144217425292408219	2	5	15		30pct	0	5	2		0	0	0	0	0	0	2	0	0	0	0	0	0	0	2	0	6	0	0	0	0	0	0	0	0	0	0	0	1		48	48	19	cloud	wind	5	12	25	37	0	0	0	48	3227	232.3439999999999940883	3007	0	148
6.6.1	mac	0	2023-09-15	15:22:18	1	1	1	experiment	1	experiment_noU	2	750	5201	590	390			34	dynamic	POS	1					148		2	5	15		30pct	0	5	2		0	0	0	0	0	0	2	0	0	0	0	0	0	0	2	0	6	0	0	0	0	0	0	0	0	0	0	0	1		49	49	19	cloud	wind	5	12	25	37	0	0	0	48	3227	232.3439999999999940883	3007	0	148
6.6.1	mac	0	2023-09-15	15:22:18	1	1	1	experiment	1	dispFeedback_noU	2	750	1000	590	390			34	dynamic	POS	1	145	0.6999999999999999556	101.5	1	10	0.8694504289583886436	2	5	15		30pct	0	5	2		0	0	0	0	0	0	2	0	0	0	0	0	0	0	2	0	6	0	0	0	0	0	0	0	0	0	0	0	1		49	49	19	cloud	wind	5	12	25	37	0	0	0	49	3151	226.8720000000000140972	3008	0	10
6.6.1	mac	0	2023-09-15	15:22:18	1	1	1	experiment	1	experiment_noU	2	750	1622	350	210			5	dynamic	POS	1					10		2	5	15		30pct	0	5	2		0	0	0	0	0	0	2	0	0	0	0	0	0	0	2	0	6	0	0	0	0	0	0	0	0	0	0	0	1		50	50	19	cloud	wind	5	12	25	37	0	0	0	49	3151	226.8720000000000140972	3008	0	10
6.6.1	mac	0	2023-09-15	15:22:18	1	1	1	experiment	1	dispFeedback_noU	2	750	1000	350	210			5	dynamic	POS	1	149	0.6999999999999999556	104.2999999999999971578	149	160	0.0378463657195322115	2	5	15		30pct	0	5	2		0	0	0	0	0	0	2	0	0	0	0	0	0	0	2	0	6	0	0	0	0	0	0	0	0	0	0	0	1		50	50	19	cloud	wind	5	12	25	37	0	0	0	50	3122	224.7839999999999918145	3157	0	160
6.6.1	mac	0	2023-09-15	15:22:18	1	1	1	experiment	1	experiment_noU	2	750	4315	530	450			54	dynamic	POS	1					160		2	5	15		30pct	0	5	2		0	0	0	0	0	0	2	0	0	0	0	0	0	0	2	0	6	0	0	0	0	0	0	0	0	0	0	0	1		51	51	19	cloud	wind	5	12	25	37	0	0	0	50	3122	224.7839999999999918145	3157	0	160
6.6.1	mac	0	2023-09-15	15:22:18	1	1	1	experiment	1	dispFeedback_noU	2	750	1000	530	450			54	dynamic	POS	1	152	0.6999999999999999556	106.3999999999999914735	1	10	0.982815035149179228	2	5	15		30pct	0	5	2		0	0	0	0	0	0	2	0	0	0	0	0	0	0	2	0	6	0	0	0	0	0	0	0	0	0	0	0	1		51	51	19	cloud	wind	5	12	25	37	0	0	0	51	3265	235.0800000000000125056	3158	0	10
6.6.1	mac	0	2023-09-15	15:22:18	1	1	1	experiment	1	experiment_noU	2	750	4895	430	360			40	dynamic	POS	1					10		2	5	15		30pct	0	5	2		0	0	0	0	0	0	2	0	0	0	0	0	0	0	2	0	6	0	0	0	0	0	0	0	0	0	0	0	1		52	52	19	cloud	wind	5	12	25	37	0	0	0	51	3265	235.0800000000000125056	3158	0	10
6.6.1	mac	0	2023-09-15	15:22:18	1	1	1	experiment	1	dispFeedback_noU	2	750	1000	430	360			40	dynamic	POS	1	154	0.6999999999999999556	107.7999999999999971578	154	150	0.0276153101650102317	2	5	15		30pct	0	5	2		0	0	0	0	0	0	2	0	0	0	0	0	0	0	2	0	6	0	0	0	0	0	0	0	0	0	0	0	1		52	52	19	cloud	wind	5	12	25	37	0	0	0	52	3145	226.4399999999999977263	3312	0	150
6.6.1	mac	0	2023-09-15	15:22:18	1	1	1	experiment	1	experiment_noU	2	750	921	410	430			17	dynamic	POS	1					150		2	5	15		30pct	0	5	2		0	0	0	0	0	0	2	0	0	0	0	0	0	0	2	0	6	0	0	0	0	0	0	0	0	0	0	0	1		53	53	19	cloud	wind	5	12	25	37	0	0	0	52	3145	226.4399999999999977263	3312	0	150
6.6.1	mac	0	2023-09-15	15:22:18	1	1	1	experiment	1	dispFeedback_noU	2	750	1000	410	430			17	dynamic	POS	1	149	0.6999999999999999556	104.2999999999999971578	149	158	0.2417203179192078111	2	5	15		30pct	0	5	2		0	0	0	0	0	0	2	0	0	0	0	0	0	0	2	0	6	0	0	0	0	0	0	0	0	0	0	0	1		53	53	19	cloud	wind	5	12	25	37	0	0	0	53	3021	217.5120000000000004547	3461	0	158
6.6.1	mac	0	2023-09-15	15:22:18	1	1	1	experiment	1	experiment_noU	2	750	791	510	410			23	dynamic	POS	1					158		2	5	15		30pct	0	5	2		0	0	0	0	0	0	2	0	0	0	0	0	0	0	2	0	6	0	0	0	0	0	0	0	0	0	0	0	1		54	54	19	cloud	wind	5	12	25	37	0	0	0	53	3021	217.5120000000000004547	3461	0	158
6.6.1	mac	0	2023-09-15	15:22:18	1	1	1	experiment	1	dispFeedback_noU	2	750	1000	510	410			23	dynamic	POS	1	154	0.6999999999999999556	107.7999999999999971578	154	160	0.1025639842503154597	2	5	15		30pct	0	5	2		0	0	0	0	0	0	2	0	0	0	0	0	0	0	2	0	6	0	0	0	0	0	0	0	0	0	0	0	1		54	54	19	cloud	wind	5	12	25	37	0	0	0	54	3191	229.7520000000000095497	3615	0	160
6.6.1	mac	0	2023-09-15	15:22:18	1	1	1	experiment	1	experiment_noU	2	750	1681	500	370			5	dynamic	POS	1					160		2	5	15		30pct	0	5	2		0	0	0	0	0	0	2	0	0	0	0	0	0	0	2	0	6	0	0	0	0	0	0	0	0	0	0	0	1		55	55	19	cloud	wind	5	12	25	37	0	0	0	54	3191	229.7520000000000095497	3615	0	160
6.6.1	mac	0	2023-09-15	15:22:18	1	1	1	experiment	1	dispFeedback_noU	2	750	1000	500	370			5	dynamic	POS	1	154	0.6999999999999999556	107.7999999999999971578	154	133	0.1571932554145328009	2	5	15		30pct	0	5	2		0	0	0	0	0	0	2	0	0	0	0	0	0	0	2	0	6	0	0	0	0	0	0	0	0	0	0	0	1		55	55	19	cloud	wind	5	12	25	37	0	0	0	55	3181	229.0320000000000106866	3769	0	133
6.6.1	mac	0	2023-09-15	15:22:18	1	1	1	experiment	1	experiment_noU	2	750	1008	600	150			19	dynamic	POS	1					133		2	5	15		30pct	0	5	2		0	0	0	0	0	0	2	0	0	0	0	0	0	0	2	0	6	0	0	0	0	0	0	0	0	0	0	0	1		56	56	19	cloud	wind	5	12	25	37	0	0	0	55	3181	229.0320000000000106866	3769	0	133
6.6.1	mac	0	2023-09-15	15:22:18	1	1	1	experiment	1	dispFeedback_noU	2	750	1000	600	150			19	dynamic	POS	1	154	0.6999999999999999556	107.7999999999999971578	154	123	0.1986959863451067398	2	5	15		30pct	0	5	2		0	0	0	0	0	0	2	0	0	0	0	0	0	0	2	0	6	0	0	0	0	0	0	0	0	0	0	0	1		56	56	19	cloud	wind	5	12	25	37	0	0	0	56	3208	230.9759999999999990905	3923	0	123
6.6.1	mac	0	2023-09-15	15:22:18	1	1	1	experiment	1	experiment_noU	2	750	4026	570	400			57	dynamic	POS	1					123		2	5	15		30pct	0	5	2		0	0	0	0	0	0	2	0	0	0	0	0	0	0	2	0	6	0	0	0	0	0	0	0	0	0	0	0	1		57	57	19	cloud	wind	5	12	25	37	0	0	0	56	3208	230.9759999999999990905	3923	0	123
6.6.1	mac	0	2023-09-15	15:22:18	1	1	1	experiment	1	dispFeedback_noU	2	750	1000	570	400			57	dynamic	POS	1	152	0.6999999999999999556	106.3999999999999914735	1	10	0.9435743950175993211	2	5	15		30pct	0	5	2		0	0	0	0	0	0	2	0	0	0	0	0	0	0	2	0	6	0	0	0	0	0	0	0	0	0	0	0	1		57	57	19	cloud	wind	5	12	25	37	0	0	0	57	3126	225.0720000000000027285	3924	0	10
6.6.1	mac	0	2023-09-15	15:22:18	1	1	1	experiment	1	experiment_noU	2	750	1094	260	490			22	dynamic	POS	1					10		2	5	15		30pct	0	5	2		0	0	0	0	0	0	2	0	0	0	0	0	0	0	2	0	6	0	0	0	0	0	0	0	0	0	0	0	1		58	58	19	cloud	wind	5	12	25	37	0	0	0	57	3126	225.0720000000000027285	3924	0	10
6.6.1	mac	0	2023-09-15	15:22:18	1	1	1	experiment	1	dispFeedback_noU	2	750	1000	260	490			22	dynamic	POS	1	151	0.6999999999999999556	105.6999999999999886313	151	144	0.4244506420624560294	2	5	15		30pct	0	5	2		0	0	0	0	0	0	2	0	0	0	0	0	0	0	2	0	6	0	0	0	0	0	0	0	0	0	0	0	1		58	58	19	cloud	wind	5	12	25	37	0	0	0	58	3444	247.9679999999999893134	4075	0	144
6.6.1	mac	0	2023-09-15	15:22:18	1	1	1	experiment	1	experiment_noU	2	750	2046	240	230			9	dynamic	POS	1					144		2	5	15		30pct	0	5	2		0	0	0	0	0	0	2	0	0	0	0	0	0	0	2	0	6	0	0	0	0	0	0	0	0	0	0	0	1		59	59	19	cloud	wind	5	12	25	37	0	0	0	58	3444	247.9679999999999893134	4075	0	144
6.6.1	mac	0	2023-09-15	15:22:18	1	1	1	experiment	1	dispFeedback_noU	2	750	1000	240	230			9	dynamic	POS	1	114	0.6999999999999999556	79.7999999999999971578	1	10	0.892157435392066267	2	5	15		30pct	0	5	2		0	0	0	0	0	0	2	0	0	0	0	0	0	0	2	0	6	0	0	0	0	0	0	0	0	0	0	0	1		59	59	19	cloud	wind	5	12	25	37	0	0	0	59	3746	269.7119999999999890861	4076	0	10
6.6.1	mac	0	2023-09-15	15:22:18	1	1	1	experiment	1	experiment_noU	2	750	2802	300	120			89	dynamic	POS	1					10		2	5	15		30pct	0	5	2		0	0	0	0	0	0	2	0	0	0	0	0	0	0	2	0	6	0	0	0	0	0	0	0	0	0	0	0	1		60	60	19	cloud	wind	5	12	25	37	0	0	0	59	3746	269.7119999999999890861	4076	0	10
6.6.1	mac	0	2023-09-15	15:22:18	1	1	1	experiment	1	dispFeedback_noU	2	750	1000	300	120			89	dynamic	POS	1	146	0.6999999999999999556	102.1999999999999886313	146	140	0.3268837359097981343	2	5	15		30pct	0	5	2		0	0	0	0	0	0	2	0	0	0	0	0	0	0	2	0	6	0	0	0	0	0	0	0	0	0	0	0	1		60	60	19	cloud	wind	5	12	25	37	0	0	0	60	3502	252.144000000000005457	4222	0	140
6.6.1	mac	0	2023-09-15	15:22:18	1	1	1	experiment	1	experiment_noU	2	750	4849	200	110			47	dynamic	POS	1					140		2	5	15		30pct	0	5	2		0	0	0	0	0	0	2	0	0	0	0	0	0	0	2	0	6	0	0	0	0	0	0	0	0	0	0	0	1		61	61	19	cloud	wind	5	12	25	37	0	0	0	60	3502	252.144000000000005457	4222	0	140
6.6.1	mac	0	2023-09-15	15:22:18	1	1	1	experiment	1	dispFeedback_noU	2	750	1000	200	110			47	dynamic	POS	1	146	0.6999999999999999556	102.1999999999999886313	146	145	0.5585331093889039922	2	5	15		30pct	0	5	2		0	0	0	0	0	0	2	0	0	0	0	0	0	0	2	0	6	0	0	0	0	0	0	0	0	0	0	0	1		61	61	19	cloud	wind	5	12	25	37	0	0	0	61	3449	248.3280000000000029559	4368	0	145
6.6.1	mac	0	2023-09-15	15:22:18	1	1	1	experiment	1	experiment_noU	2	750	1417	220	320			16	dynamic	POS	1					145		2	5	15		30pct	0	5	2		0	0	0	0	0	0	2	0	0	0	0	0	0	0	2	0	6	0	0	0	0	0	0	0	0	0	0	0	1		62	62	19	cloud	wind	5	12	25	37	0	0	0	61	3449	248.3280000000000029559	4368	0	145
6.6.1	mac	0	2023-09-15	15:22:18	1	1	1	experiment	1	dispFeedback_noU	2	750	1000	220	320			16	dynamic	POS	1	153	0.6999999999999999556	107.0999999999999943157	153	123	0.3636068893511795741	2	5	15		30pct	0	5	2		0	0	0	0	0	0	2	0	0	0	0	0	0	0	2	0	6	0	0	0	0	0	0	0	0	0	0	0	1		62	62	19	cloud	wind	5	12	25	37	0	0	0	62	3467	249.6239999999999952252	4521	0	123
6.6.1	mac	0	2023-09-15	15:22:18	1	1	1	experiment	1	experiment_noU	2	750	551	390	160			36	dynamic	POS	1					123		2	5	15		30pct	0	5	2		0	0	0	0	0	0	2	0	0	0	0	0	0	0	2	0	6	0	0	0	0	0	0	0	0	0	0	0	1		63	63	19	cloud	wind	5	12	25	37	0	0	0	62	3467	249.6239999999999952252	4521	0	123
6.6.1	mac	0	2023-09-15	15:22:18	1	1	1	experiment	1	dispFeedback_noU	2	750	1000	390	160			36	dynamic	POS	1	131	0.6999999999999999556	91.6999999999999886313	131	142	0.1158157931910398925	2	5	15		30pct	0	5	2		0	0	0	0	0	0	2	0	0	0	0	0	0	0	2	0	6	0	0	0	0	0	0	0	0	0	0	0	1		63	63	19	cloud	wind	5	12	25	37	0	0	0	63	3601	259.2719999999999913598	4652	0	142
6.6.1	mac	0	2023-09-15	15:22:18	1	1	1	experiment	1	experiment_noU	2	750	474	520	220			38	dynamic	POS	1					142		2	5	15		30pct	0	5	2		0	0	0	0	0	0	2	0	0	0	0	0	0	0	2	0	6	0	0	0	0	0	0	0	0	0	0	0	1		64	64	19	cloud	wind	5	12	25	37	0	0	0	63	3601	259.2719999999999913598	4652	0	142
6.6.1	mac	0	2023-09-15	15:22:18	1	1	1	experiment	1	dispFeedback_noU	2	750	1000	520	220			38	dynamic	POS	1	139	0.6999999999999999556	97.2999999999999971578	1	10	0.7451669410209094124	2	5	15		30pct	0	5	2		0	0	0	0	0	0	2	0	0	0	0	0	0	0	2	0	6	0	0	0	0	0	0	0	0	0	0	0	1		64	64	19	cloud	wind	5	12	25	37	0	0	0	64	3624	260.9279999999999972715	4653	0	10
6.6.1	mac	0	2023-09-15	15:22:18	1	1	1	experiment	1	experiment_noU	2	750	606	400	290			79	dynamic	POS	1					10		2	5	15		30pct	0	5	2		0	0	0	0	0	0	2	0	0	0	0	0	0	0	2	0	6	0	0	0	0	0	0	0	0	0	0	0	1		65	65	19	cloud	wind	5	12	25	37	0	0	0	64	3624	260.9279999999999972715	4653	0	10
