build	computer.platform	computer.touch	date	time	subject	group	sessionid	blockcode	blocknum	trialcode	latency	randStart	startPos	scrfunc	rtvspos	randStart	circleproportion	mag	freq	ev	inc	rng	startPos	n_revolutions	totalPoints	totalEarnings	Earnings
6.6.1	mac	0	2023-01-18	14:35:58	1	1	1	experiment	1	experiment_noU	877	1	50	IEV	POS	1	0.3300000000000000155						50	1988	0	0	
6.6.1	mac	0	2023-01-18	14:35:58	1	1	1	experiment	1	dispFeedback_noU	1000	1	50	IEV	POS	1	0.3300000000000000155	248	0.9522502343498376876	236.2653077885943844194	248	0.1634494429834767726	50	1988	248	0	
6.6.1	mac	0	2023-01-18	14:35:58	1	1	1	experiment	1	experiment_noU	555	1	55	IEV	POS	1	0.3300000000000000155						55	4565	248	0	
6.6.1	mac	0	2023-01-18	14:35:58	1	1	1	experiment	1	dispFeedback_noU	1000	1	55	IEV	POS	1	0.3300000000000000155	234	0.9620938985959678336	225.4545194330008541783	234	0.8371958590199229944	55	4565	482	0	
6.6.1	mac	0	2023-01-18	14:35:58	1	1	1	experiment	1	experiment_U	852	1	75	IEV	POS	1	0.3300000000000000155						75	7443	482	0	
6.6.1	mac	0	2023-01-18	14:35:58	1	1	1	experiment	1	dispFeedback_U	1000	1	75	IEV	POS	1	0.3300000000000000155	27	1.0147775971217005697	26.9626004003881476478	27	0.8856008478639649795	75	7443	509	4	4
6.6.1	mac	0	2023-01-18	14:35:58	1	1	1	experiment	1	experiment_U	832	1	1	IEV	POS	1	0.3300000000000000155						1	10307	509	4	4
6.6.1	mac	0	2023-01-18	14:35:58	1	1	1	experiment	1	dispFeedback_U	1000	1	1	IEV	POS	1	0.3300000000000000155	59	1.1190121331558327	65.7637018446047534326	59	0.9670582914182586087	1	10307	568	10	6
6.6.1	mac	0	2023-01-18	14:35:58	1	1	1	experiment	1	experiment_U	989	1	36	IEV	POS	1	0.3300000000000000155						36	13331	568	10	6
6.6.1	mac	0	2023-01-18	14:35:58	1	1	1	experiment	1	dispFeedback_U	1000	1	36	IEV	POS	1	0.3300000000000000155	166	1.0277519125297616132	170.1868408769844052131	166	0.9527829955222045788	36	13331	734	10	6
6.6.1	mac	0	2023-01-18	14:35:58	1	1	1	experiment	1	experiment_U	2371	1	20	IEV	POS	1	0.3300000000000000155						20	17729	734	10	6
6.6.1	mac	0	2023-01-18	14:35:58	1	1	1	experiment	1	dispFeedback_U	1000	1	20	IEV	POS	1	0.3300000000000000155	245	0.9530749026355590514	233.5092326081856128894	245	0.5915966687238767285	20	17729	979	10	6
6.6.1	mac	0	2023-01-18	14:35:58	1	1	1	experiment	1	experiment_U	1860	1	25	IEV	POS	1	0.3300000000000000155						25	21617	979	10	6
6.6.1	mac	0	2023-01-18	14:35:58	1	1	1	experiment	1	dispFeedback_U	1000	1	25	IEV	POS	1	0.3300000000000000155	205	0.9880590750383705378	203.0456517479792921677	205	0.2580076112081314266	25	21617	1184	10	6
6.6.1	mac	0	2023-01-18	14:35:58	1	1	1	experiment	2	experiment_noU	1079	1	60	CEV	POS	1	0.3300000000000000155						60	24736	1184	10	6
6.6.1	mac	0	2023-01-18	14:35:58	1	1	1	experiment	2	dispFeedback_noU	1000	1	60	CEV	POS	1	0.3300000000000000155	48	0.8529999999999999805	41.2650000000000005684	0	0.9779432900198603562	60	24736	1184	10	0
6.6.1	mac	0	2023-01-18	14:35:58	1	1	1	experiment	2	experiment_noU	731	1	16	CEV	POS	1	0.3300000000000000155						16	27487	1184	10	0
6.6.1	mac	0	2023-01-18	14:35:58	1	1	1	experiment	2	dispFeedback_noU	1000	1	16	CEV	POS	1	0.3300000000000000155	74	0.5027142857142856691	37	74	0.3465468993751674165	16	27487	1258	17	7
6.6.1	mac	0	2023-01-18	14:35:58	1	1	1	experiment	2	experiment_U	301	1	70	CEV	POS	1	0.3300000000000000155						70	29807	1258	17	7
