build	computer.platform	computer.touch	date	time	subject	group	sessionid	blockcode	blocknum	trialcode	latency	randStart	startPos	scrfunc	rtvspos	randStart	mag	freq	ev	inc	rng	startPos	fogPos1	windPos2	chooseFog1	chooseWind2	choose_unc_att1	choose_unc_att2	unc_att_count1	unc_att_count2	chooseAttentionalControl1	chooseAttentionalControl2	blockCount	ntrials	trialCount	meta_trialCount	attentional_control	local_uncertainty	unc_att_start1	unc_att_start2	uncertainty_block	rt_shifted	totalPoints	totalEarnings	Earnings
6.6.1	mac	0	2023-04-27	12:02:27	1	1	1	experiment	1	experiment_noU	788	1	76	dynamic	POS	1						76	25	40	0	0	0	0	0	0	0	0	1	33	0	0	cloud	wind	12	30	0		0	0	
6.6.1	mac	0	2023-04-27	12:02:27	1	1	1	experiment	1	dispFeedback_noU	1000	1	76	dynamic	POS	1	20.5100000000000015632	1	20.5100000000000015632	20.5100000000000015632	0.3002363299718676659	76	25	40	0	0	0	0	0	0	0	0	1	33	1	1	cloud	wind	12	30	0	838	20.5100000000000015632	0.5	0.5
6.6.1	mac	0	2023-04-27	12:02:27	1	1	1	experiment	1	experiment_noU	374	1	24	dynamic	POS	1						24	25	40	0	0	0	0	0	0	0	0	1	33	1	1	cloud	wind	12	30	0	838	20.5100000000000015632	0.5	0.5
6.6.1	mac	0	2023-04-27	12:02:27	1	1	1	experiment	1	dispFeedback_noU	1000	1	24	dynamic	POS	1	70.3100000000000022737	1	70.3100000000000022737	70.3100000000000022737	0.0179227353115386165	24	25	40	0	0	0	0	0	0	0	0	1	33	2	2	cloud	wind	12	30	0	2824	90.8200000000000073896	3	2.5
6.6.1	mac	0	2023-04-27	12:02:27	1	1	1	experiment	1	experiment_noU	4485	1	27	dynamic	POS	1						27	25	40	0	0	0	0	0	0	0	0	1	33	2	2	cloud	wind	12	30	0	2824	90.8200000000000073896	3	2.5
6.6.1	mac	0	2023-04-27	12:02:27	1	1	1	experiment	1	dispFeedback_noU	1000	1	27	dynamic	POS	1	162.8499999999999943157	1	162.8499999999999943157	162.8499999999999943157	0.4912770207718193949	27	25	40	0	0	0	0	0	0	0	0	1	33	3	3	cloud	wind	12	30	0	2085	253.6700000000000159162	8	5
6.6.1	mac	0	2023-04-27	12:02:27	1	1	1	experiment	1	experiment_noU	3232	1	50	dynamic	POS	1						50	25	40	0	0	0	0	0	0	0	0	1	33	3	3	cloud	wind	12	30	0	2085	253.6700000000000159162	8	5
6.6.1	mac	0	2023-04-27	12:02:27	1	1	1	experiment	1	dispFeedback_noU	1000	1	50	dynamic	POS	1	145.6500000000000056843	1	145.6500000000000056843	145.6500000000000056843	0.2998460809001340932	50	25	40	0	0	0	0	0	0	0	0	1	33	4	4	cloud	wind	12	30	0	1982	399.3200000000000500222	13	5
6.6.1	mac	0	2023-04-27	12:02:27	1	1	1	experiment	1	experiment_noU	381	1	4	dynamic	POS	1						4	25	40	0	0	0	0	0	0	0	0	1	33	4	4	cloud	wind	12	30	0	1982	399.3200000000000500222	13	5
6.6.1	mac	0	2023-04-27	12:02:27	1	1	1	experiment	1	dispFeedback_noU	1000	1	4	dynamic	POS	1	137.9499999999999886313	1	137.9499999999999886313	137.9499999999999886313	0.6049327532772283966	4	25	40	0	0	0	0	0	0	0	0	1	33	5	5	cloud	wind	12	30	0	1831	537.2699999999999818101	18	5
6.6.1	mac	0	2023-04-27	12:02:27	1	1	1	experiment	1	experiment_noU	2956	1	55	dynamic	POS	1						55	25	40	0	0	0	0	0	0	0	0	1	33	5	5	cloud	wind	12	30	0	1831	537.2699999999999818101	18	5
6.6.1	mac	0	2023-04-27	12:02:27	1	1	1	experiment	1	dispFeedback_noU	1000	1	55	dynamic	POS	1	147.7800000000000011369	1	147.7800000000000011369	147.7800000000000011369	0.7340431850715640749	55	25	40	0	0	0	0	0	0	0	0	1	33	6	6	cloud	wind	12	30	0	1956	685.0499999999999545253	23	5
6.6.1	mac	0	2023-04-27	12:02:27	1	1	1	experiment	1	experiment_noU	4275	1	28	dynamic	POS	1						28	25	40	0	0	0	0	0	0	0	0	1	33	6	6	cloud	wind	12	30	0	1956	685.0499999999999545253	23	5
6.6.1	mac	0	2023-04-27	12:02:27	1	1	1	experiment	1	dispFeedback_noU	1000	1	28	dynamic	POS	1	161.8499999999999943157	1	161.8499999999999943157	161.8499999999999943157	0.475172117695950913	28	25	40	0	0	0	0	0	0	0	0	1	33	7	7	cloud	wind	12	30	0	1925	846.8999999999999772626	28	5
6.6.1	mac	0	2023-04-27	12:02:27	1	1	1	experiment	1	experiment_noU	4870	1	16	dynamic	POS	1						16	25	40	0	0	0	0	0	0	0	0	1	33	7	7	cloud	wind	12	30	0	1925	846.8999999999999772626	28	5
6.6.1	mac	0	2023-04-27	12:02:27	1	1	1	experiment	1	dispFeedback_noU	1000	1	16	dynamic	POS	1	147.6500000000000056843	1	147.6500000000000056843	147.6500000000000056843	0.8521243931846982367	16	25	40	0	0	0	0	0	0	0	0	1	33	8	8	cloud	wind	12	30	0	1920	994.5499999999999545253	33	5
6.6.1	mac	0	2023-04-27	12:02:27	1	1	1	experiment	1	experiment_noU	1472	1	85	dynamic	POS	1						85	25	40	0	0	0	0	0	0	0	0	1	33	8	8	cloud	wind	12	30	0	1920	994.5499999999999545253	33	5
6.6.1	mac	0	2023-04-27	12:02:27	1	1	1	experiment	1	dispFeedback_noU	1000	1	85	dynamic	POS	1	162.3400000000000034106	1	162.3400000000000034106	162.3400000000000034106	0.2999338128836671613	85	25	40	0	0	0	0	0	0	0	0	1	33	9	9	cloud	wind	12	30	0	1972	1156.8899999999998726707	38	5
6.6.1	mac	0	2023-04-27	12:02:27	1	1	1	experiment	1	experiment_noU	3763	1	39	dynamic	POS	1						39	25	40	0	0	0	0	0	0	0	0	1	33	9	9	cloud	wind	12	30	0	1972	1156.8899999999998726707	38	5
6.6.1	mac	0	2023-04-27	12:02:27	1	1	1	experiment	1	dispFeedback_noU	1000	1	39	dynamic	POS	1	167.0600000000000022737	1	167.0600000000000022737	167.0600000000000022737	0.6292635590371823406	39	25	40	0	0	0	0	0	0	0	0	1	33	10	10	cloud	wind	12	30	0	1963	1323.9499999999998181011	43	5
6.6.1	mac	0	2023-04-27	12:02:27	1	1	1	experiment	1	experiment_noU	587	1	2	dynamic	POS	1						2	25	40	0	0	0	0	0	0	0	0	1	33	10	10	cloud	wind	12	30	0	1963	1323.9499999999998181011	43	5
6.6.1	mac	0	2023-04-27	12:02:27	1	1	1	experiment	1	dispFeedback_noU	1000	1	2	dynamic	POS	1	161.5699999999999931788	1	161.5699999999999931788	161.5699999999999931788	0.1876194102660798113	2	25	40	0	0	0	0	0	0	0	0	1	33	11	11	cloud	wind	12	30	0	1937	1485.5199999999997544364	48	5
6.6.1	mac	0	2023-04-27	12:02:27	1	1	1	experiment	1	experiment_noU	338	1	15	dynamic	POS	1						15	25	40	0	0	0	0	0	0	0	0	1	33	11	11	cloud	wind	12	30	0	1937	1485.5199999999997544364	48	5
6.6.1	mac	0	2023-04-27	12:02:27	1	1	1	experiment	1	dispFeedback_noU	1000	1	15	dynamic	POS	1	125.980000000000003979	1	125.980000000000003979	125.980000000000003979	0.4240175039563368609	15	25	40	0	0	0	0	0	0	0	0	1	33	12	12	cloud	wind	12	30	1	2338	1611.4999999999997726263	52.5	4.5
6.6.1	mac	0	2023-04-27	12:02:27	1	1	1	experiment	1	experiment_U	3378	1	47	dynamic	POS	1						47	25	40	0	0	0	0	0	0	0	0	1	33	12	12	cloud	wind	12	30	1	2338	1611.4999999999997726263	52.5	4.5
6.6.1	mac	0	2023-04-27	12:02:27	1	1	1	experiment	1	dispFeedback_U	1000	1	47	dynamic	POS	1	159.9699999999999988631	1	159.9699999999999988631	159.9699999999999988631	0.6167994895057751226	47	25	40	0	0	0	0	1	0	0	0	1	33	13	13	cloud	wind	12	30	1	1978	1771.4699999999997999112	57.5	5
6.6.1	mac	0	2023-04-27	12:02:27	1	1	1	experiment	1	experiment_U	1912	1	75	dynamic	POS	1						75	25	40	0	0	0	0	1	0	0	0	1	33	13	13	cloud	wind	12	30	1	1978	1771.4699999999997999112	57.5	5
6.6.1	mac	0	2023-04-27	12:02:27	1	1	1	experiment	1	dispFeedback_U	1000	1	75	dynamic	POS	1	162.9699999999999988631	1	162.9699999999999988631	162.9699999999999988631	0.0395779064948619114	75	25	40	0	0	0	0	2	0	0	0	1	33	14	14	cloud	wind	12	30	1	1912	1934.439999999999827196	62.5	5
6.6.1	mac	0	2023-04-27	12:02:27	1	1	1	experiment	1	experiment_U	1290	1	85	dynamic	POS	1						85	25	40	0	0	0	0	2	0	0	0	1	33	14	14	cloud	wind	12	30	1	1912	1934.439999999999827196	62.5	5
6.6.1	mac	0	2023-04-27	12:02:27	1	1	1	experiment	1	dispFeedback_U	1000	1	85	dynamic	POS	1	159.7100000000000079581	1	159.7100000000000079581	159.7100000000000079581	0.5641631524926431496	85	25	40	0	0	0	0	3	0	0	0	1	33	15	15	cloud	wind	12	30	1	1790	2094.1499999999996362021	67.5	5
6.6.1	mac	0	2023-04-27	12:02:27	1	1	1	experiment	1	experiment_U	3669	1	40	dynamic	POS	1						40	25	40	0	0	0	0	3	0	0	0	1	33	15	15	cloud	wind	12	30	1	1790	2094.1499999999996362021	67.5	5
6.6.1	mac	0	2023-04-27	12:02:27	1	1	1	experiment	1	dispFeedback_U	1000	1	40	dynamic	POS	1	167.8799999999999954525	1	167.8799999999999954525	167.8799999999999954525	0.6035523879350052079	40	25	40	0	0	0	0	4	0	0	0	1	33	16	16	cloud	wind	12	30	1	1919	2262.0299999999997453415	72.5	5
6.6.1	mac	0	2023-04-27	12:02:27	1	1	1	experiment	1	experiment_U	1537	1	80	dynamic	POS	1						80	25	40	0	0	0	0	4	0	0	0	1	33	16	16	cloud	wind	12	30	1	1919	2262.0299999999997453415	72.5	5
6.6.1	mac	0	2023-04-27	12:02:27	1	1	1	experiment	1	dispFeedback_U	1000	1	80	dynamic	POS	1	170.8700000000000045475	1	170.8700000000000045475	170.8700000000000045475	0.0897193143818805217	80	25	40	0	0	0	0	5	0	0	0	1	33	17	17	cloud	wind	12	30	1	1787	2432.8999999999996362021	77.5	5
6.6.1	mac	0	2023-04-27	12:02:27	1	1	1	experiment	1	experiment_U	450	1	1	dynamic	POS	1						1	25	40	0	0	0	0	5	0	0	0	1	33	17	17	cloud	wind	12	30	1	1787	2432.8999999999996362021	77.5	5
6.6.1	mac	0	2023-04-27	12:02:27	1	1	1	experiment	1	dispFeedback_U	1000	1	1	dynamic	POS	1	153.8100000000000022737	1	153.8100000000000022737	153.8100000000000022737	0.8170433034694388752	1	25	40	0	0	0	0	6	0	0	0	1	33	18	18	cloud	wind	12	30	1	1750	2586.7099999999995816324	82.5	5
6.6.1	mac	0	2023-04-27	12:02:27	1	1	1	experiment	1	experiment_U	3983	1	32	dynamic	POS	1						32	25	40	0	0	0	0	6	0	0	0	1	33	18	18	cloud	wind	12	30	1	1750	2586.7099999999995816324	82.5	5
6.6.1	mac	0	2023-04-27	12:02:27	1	1	1	experiment	1	dispFeedback_U	1000	1	32	dynamic	POS	1	144.8300000000000125056	1	144.8300000000000125056	144.8300000000000125056	0.0466323846594040234	32	25	40	0	0	0	0	7	0	0	0	1	33	19	19	cloud	wind	12	30	1	1833	2731.5399999999995088729	87.5	5
6.6.1	mac	0	2023-04-27	12:02:27	1	1	1	experiment	1	experiment_U	317	1	7	dynamic	POS	1						7	25	40	0	0	0	0	7	0	0	0	1	33	19	19	cloud	wind	12	30	1	1833	2731.5399999999995088729	87.5	5
6.6.1	mac	0	2023-04-27	12:02:27	1	1	1	experiment	1	dispFeedback_U	1000	1	7	dynamic	POS	1	139.9900000000000090949	1	139.9900000000000090949	139.9900000000000090949	0.3872986515954366382	7	25	40	0	0	0	0	8	0	0	0	1	33	20	20	cloud	wind	12	30	1	1917	2871.5299999999997453415	92.5	5
6.6.1	mac	0	2023-04-27	12:02:27	1	1	1	experiment	1	experiment_U	2110	1	70	dynamic	POS	1						70	25	40	0	0	0	0	8	0	0	0	1	33	20	20	cloud	wind	12	30	1	1917	2871.5299999999997453415	92.5	5
6.6.1	mac	0	2023-04-27	12:02:27	1	1	1	experiment	1	dispFeedback_U	1000	1	70	dynamic	POS	1	133.0200000000000102318	1	133.0200000000000102318	133.0200000000000102318	0.9726826408814365221	70	25	40	0	0	0	0	9	0	0	0	1	33	21	21	cloud	wind	12	30	1	1860	3004.5499999999997271516	97	4.5
6.6.1	mac	0	2023-04-27	12:02:27	1	1	1	experiment	1	experiment_U	3993	1	27	dynamic	POS	1						27	25	40	0	0	0	0	9	0	0	0	1	33	21	21	cloud	wind	12	30	1	1860	3004.5499999999997271516	97	4.5
6.6.1	mac	0	2023-04-27	12:02:27	1	1	1	experiment	1	dispFeedback_U	1000	1	27	dynamic	POS	1	106.8100000000000022737	1	106.8100000000000022737	106.8100000000000022737	0.0038093698685544939	27	25	40	0	0	0	0	10	0	0	0	1	33	22	22	cloud	wind	12	30	1	1593	3111.3599999999996725819	101	4
6.6.1	mac	0	2023-04-27	12:02:27	1	1	1	experiment	1	experiment_U	2775	1	51	dynamic	POS	1						51	25	40	0	0	0	0	10	0	0	0	1	33	22	22	cloud	wind	12	30	1	1593	3111.3599999999996725819	101	4
6.6.1	mac	0	2023-04-27	12:02:27	1	1	1	experiment	1	dispFeedback_U	1000	1	51	dynamic	POS	1	86.9000000000000056843	1	86.9000000000000056843	86.9000000000000056843	0.4756458095450992185	51	25	40	0	0	0	0	11	0	0	0	1	33	23	23	cloud	wind	12	30	1	1575	3198.2599999999997635314	104	3
6.6.1	mac	0	2023-04-27	12:02:27	1	1	1	experiment	1	experiment_U	4134	1	24	dynamic	POS	1						24	25	40	0	0	0	0	11	0	0	0	1	33	23	23	cloud	wind	12	30	1	1575	3198.2599999999997635314	104	3
6.6.1	mac	0	2023-04-27	12:02:27	1	1	1	experiment	1	dispFeedback_U	1000	1	24	dynamic	POS	1	87.2600000000000051159	1	87.2600000000000051159	87.2600000000000051159	0.1605632466172248196	24	25	40	0	0	0	0	12	0	0	0	1	33	24	24	cloud	wind	12	30	1	1584	3285.5199999999999818101	107	3
6.6.1	mac	0	2023-04-27	12:02:27	1	1	1	experiment	1	experiment_U	1919	1	13	dynamic	POS	1						13	25	40	0	0	0	0	12	0	0	0	1	33	24	24	cloud	wind	12	30	1	1584	3285.5199999999999818101	107	3
6.6.1	mac	0	2023-04-27	12:02:27	1	1	1	experiment	1	dispFeedback_U	1000	1	13	dynamic	POS	1	37.5900000000000034106	1	37.5900000000000034106	37.5900000000000034106	0.0417827970911242991	13	25	40	0	0	0	0	13	0	0	0	1	33	25	25	cloud	wind	12	30	1	3819	3323.1100000000001273293	108.5	1.5
6.6.1	mac	0	2023-04-27	12:02:27	1	1	1	experiment	1	experiment_U	1216	1	30	dynamic	POS	1						30	25	40	0	0	0	0	13	0	0	0	1	33	25	25	cloud	wind	12	30	1	3819	3323.1100000000001273293	108.5	1.5
6.6.1	mac	0	2023-04-27	12:02:27	1	1	1	experiment	1	dispFeedback_U	1000	1	30	dynamic	POS	1	41.1000000000000014211	1	41.1000000000000014211	41.1000000000000014211	0.8681279488066508954	30	25	40	0	0	0	0	14	0	0	0	1	33	26	26	cloud	wind	12	30	1	3966	3364.2100000000000363798	110	1.5
6.6.1	mac	0	2023-04-27	12:02:27	1	1	1	experiment	1	experiment_U	2831	1	52	dynamic	POS	1						52	25	40	0	0	0	0	14	0	0	0	1	33	26	26	cloud	wind	12	30	1	3966	3364.2100000000000363798	110	1.5
6.6.1	mac	0	2023-04-27	12:02:27	1	1	1	experiment	1	dispFeedback_U	1000	1	52	dynamic	POS	1	76.1099999999999994316	1	76.1099999999999994316	76.1099999999999994316	0.8291488573488660085	52	25	40	0	0	0	0	15	0	0	0	1	33	27	27	cloud	wind	12	30	1	1681	3440.320000000000163709	113	3
6.6.1	mac	0	2023-04-27	12:02:27	1	1	1	experiment	1	experiment_U	347	1	3	dynamic	POS	1						3	25	40	0	0	0	0	15	0	0	0	1	33	27	27	cloud	wind	12	30	1	1681	3440.320000000000163709	113	3
6.6.1	mac	0	2023-04-27	12:02:27	1	1	1	experiment	1	dispFeedback_U	1000	1	3	dynamic	POS	1	48.9299999999999997158	1	48.9299999999999997158	48.9299999999999997158	0.5816770795690074936	3	25	40	0	0	0	0	16	0	0	0	1	33	28	28	cloud	wind	12	30	1	1747	3489.25	115	2
6.6.1	mac	0	2023-04-27	12:02:27	1	1	1	experiment	1	experiment_U	1067	1	86	dynamic	POS	1						86	25	40	0	0	0	0	16	0	0	0	1	33	28	28	cloud	wind	12	30	1	1747	3489.25	115	2
6.6.1	mac	0	2023-04-27	12:02:27	1	1	1	experiment	1	dispFeedback_U	1000	1	86	dynamic	POS	1	47.3999999999999985789	1	47.3999999999999985789	47.3999999999999985789	0.9477649428760085426	86	25	40	0	0	0	0	17	0	0	0	1	33	29	29	cloud	wind	12	30	1	1617	3536.6500000000000909495	117	2
6.6.1	mac	0	2023-04-27	12:02:27	1	1	1	experiment	1	experiment_U	2750	1	71	dynamic	POS	1						71	25	40	0	0	0	0	17	0	0	0	1	33	29	29	cloud	wind	12	30	1	1617	3536.6500000000000909495	117	2
6.6.1	mac	0	2023-04-27	12:02:27	1	1	1	experiment	1	dispFeedback_U	1000	1	71	dynamic	POS	1	43.0900000000000034106	1	43.0900000000000034106	43.0900000000000034106	0.9287077677270182408	71	25	40	1	0	0	0	18	0	1	0	1	33	30	30	cloud	wind	12	30	1	2550	3579.7400000000002364686	118.5	1.5
6.6.1	mac	0	2023-04-27	12:02:27	1	1	1	experiment	1	experiment_U	4447	1	37	dynamic	POS	1						37	25	40	1	0	0	0	18	0	1	0	1	33	30	30	cloud	wind	12	30	1	2550	3579.7400000000002364686	118.5	1.5
6.6.1	mac	0	2023-04-27	12:02:27	1	1	1	experiment	1	dispFeedback_U	1000	1	37	dynamic	POS	1	40.4299999999999997158	1	40.4299999999999997158	40.4299999999999997158	0.5746036410738256661	37	25	40	1	0	0	0	19	0	2	0	1	33	31	31	cloud	wind	12	30	1	2547	3620.1700000000000727596	120	1.5
6.6.1	mac	0	2023-04-27	12:02:27	1	1	1	experiment	1	experiment_U	1850	1	89	dynamic	POS	1						89	25	40	1	0	0	0	19	0	2	0	1	33	31	31	cloud	wind	12	30	1	2547	3620.1700000000000727596	120	1.5
6.6.1	mac	0	2023-04-27	12:02:27	1	1	1	experiment	1	dispFeedback_U	1000	1	89	dynamic	POS	1	33.1899999999999977263	1	33.1899999999999977263	33.1899999999999977263	0.6139380013602641073	89	25	40	1	0	0	0	20	0	3	0	1	33	32	32	cloud	wind	12	30	1	2550	3653.3600000000001273293	121.5	1.5
6.6.1	mac	0	2023-04-27	12:02:27	1	1	1	experiment	1	experiment_U	4478	1	35	dynamic	POS	1						35	25	40	1	0	0	0	20	0	3	0	1	33	32	32	cloud	wind	12	30	1	2550	3653.3600000000001273293	121.5	1.5
6.6.1	mac	0	2023-04-27	12:02:27	1	1	1	experiment	1	dispFeedback_U	1000	1	35	dynamic	POS	1	32.4799999999999968736	1	32.4799999999999968736	32.4799999999999968736	0.5535113249331505836	35	25	40	1	0	0	0	21	0	4	0	1	33	33	33	cloud	wind	12	30	1	2478	3685.8400000000001455192	123	1.5
6.6.1	mac	0	2023-04-27	12:02:27	1	1	1	experiment	2	experiment_noU	3673	1	19	dynamic	POS	1						19	20	5	1	0	0	0	0	0	4	0	2	32	0	33	cloud	wind	9	24	1	2478	3685.8400000000001455192	123	1.5
6.6.1	mac	0	2023-04-27	12:02:27	1	1	1	experiment	2	dispFeedback_noU	1000	1	19	dynamic	POS	1	80.2399999999999948841	1	80.2399999999999948841	80.2399999999999948841	0.9319380109505583931	19	20	5	1	0	0	0	0	0	4	0	2	32	1	34	cloud	wind	9	24	0	873	3766.0799999999999272404	126	3
6.6.1	mac	0	2023-04-27	12:02:27	1	1	1	experiment	2	experiment_noU	1524	1	63	dynamic	POS	1						63	20	5	1	0	0	0	0	0	4	0	2	32	1	34	cloud	wind	9	24	0	873	3766.0799999999999272404	126	3
6.6.1	mac	0	2023-04-27	12:02:27	1	1	1	experiment	2	dispFeedback_noU	1000	1	63	dynamic	POS	1	73.0699999999999931788	1	73.0699999999999931788	73.0699999999999931788	0.0913832145955840169	63	20	5	1	0	0	0	0	0	4	0	2	32	2	35	cloud	wind	9	24	0	924	3839.1500000000000909495	128.5	2.5
6.6.1	mac	0	2023-04-27	12:02:27	1	1	1	experiment	2	experiment_noU	629	1	17	dynamic	POS	1						17	20	5	1	0	0	0	0	0	4	0	2	32	2	35	cloud	wind	9	24	0	924	3839.1500000000000909495	128.5	2.5
6.6.1	mac	0	2023-04-27	12:02:27	1	1	1	experiment	2	dispFeedback_noU	1000	1	17	dynamic	POS	1	22.7300000000000004263	1	22.7300000000000004263	22.7300000000000004263	0.1561860624133111219	17	20	5	1	0	0	0	0	0	4	0	2	32	3	36	cloud	wind	9	24	0	2729	3861.8800000000001091394	129	0.5
6.6.1	mac	0	2023-04-27	12:02:27	1	1	1	experiment	2	experiment_noU	329	1	67	dynamic	POS	1						67	20	5	1	0	0	0	0	0	4	0	2	32	3	36	cloud	wind	9	24	0	2729	3861.8800000000001091394	129	0.5
6.6.1	mac	0	2023-04-27	12:02:27	1	1	1	experiment	2	dispFeedback_noU	1000	1	67	dynamic	POS	1	106.0600000000000022737	1	106.0600000000000022737	106.0600000000000022737	0.9426042970601944404	67	20	5	1	0	0	0	0	0	4	0	2	32	4	37	cloud	wind	9	24	0	4929	3967.9400000000000545697	133	4
6.6.1	mac	0	2023-04-27	12:02:27	1	1	1	experiment	2	experiment_noU	1995	1	35	dynamic	POS	1						35	20	5	1	0	0	0	0	0	4	0	2	32	4	37	cloud	wind	9	24	0	4929	3967.9400000000000545697	133	4
6.6.1	mac	0	2023-04-27	12:02:27	1	1	1	experiment	2	dispFeedback_noU	1000	1	35	dynamic	POS	1		1			0.2157319812606396103	35	20	5	1	0	0	0	0	0	4	0	2	32	5	38	cloud	wind	9	24	0	4995		133	0
6.6.1	mac	0	2023-04-27	12:02:27	1	1	1	experiment	2	experiment_noU	345	1	66	dynamic	POS	1						66	20	5	1	0	0	0	0	0	4	0	2	32	5	38	cloud	wind	9	24	0	4995		133	0
6.6.1	mac	0	2023-04-27	12:02:27	1	1	1	experiment	2	dispFeedback_noU	1000	1	66	dynamic	POS	1	116.230000000000003979	1	116.230000000000003979	116.230000000000003979	0.02408283902892909	66	20	5	1	0	0	0	0	0	4	0	2	32	6	39	cloud	wind	9	24	0	4895		137	4
6.6.1	mac	0	2023-04-27	12:02:27	1	1	1	experiment	2	experiment_noU	3337	1	8	dynamic	POS	1						8	20	5	1	0	0	0	0	0	4	0	2	32	6	39	cloud	wind	9	24	0	4895		137	4
6.6.1	mac	0	2023-04-27	12:02:27	1	1	1	experiment	2	dispFeedback_noU	1000	1	8	dynamic	POS	1		1			0.4330695514644192223	8	20	5	1	0	0	0	0	0	4	0	2	32	7	40	cloud	wind	9	24	0	4987		137	0
6.6.1	mac	0	2023-04-27	12:02:27	1	1	1	experiment	2	experiment_noU	1475	1	47	dynamic	POS	1						47	20	5	1	0	0	0	0	0	4	0	2	32	7	40	cloud	wind	9	24	0	4987		137	0
6.6.1	mac	0	2023-04-27	12:02:27	1	1	1	experiment	2	dispFeedback_noU	1000	1	47	dynamic	POS	1	161.25	1	161.25	161.25	0.7427330032788992398	47	20	5	1	0	0	0	0	0	4	0	2	32	8	41	cloud	wind	9	24	0	75		142	5
6.6.1	mac	0	2023-04-27	12:02:27	1	1	1	experiment	2	experiment_noU	1782	1	43	dynamic	POS	1						43	20	5	1	0	0	0	0	0	4	0	2	32	8	41	cloud	wind	9	24	0	75		142	5
6.6.1	mac	0	2023-04-27	12:02:27	1	1	1	experiment	2	dispFeedback_noU	1000	1	43	dynamic	POS	1	169.8700000000000045475	1	169.8700000000000045475	169.8700000000000045475	0.082559187217280075	43	20	5	1	0	0	0	0	0	4	0	2	32	9	42	cloud	wind	9	24	1	182		147	5
6.6.1	mac	0	2023-04-27	12:02:27	1	1	1	experiment	2	experiment_U	3774	1	57	dynamic	POS	1						57	20	5	1	0	0	0	0	0	4	0	2	32	9	42	cloud	wind	9	24	1	182		147	5
6.6.1	mac	0	2023-04-27	12:02:27	1	1	1	experiment	2	dispFeedback_U	1000	1	57	dynamic	POS	1	9.0899999999999998579	1	9.0899999999999998579	9.0899999999999998579	0.3713435142699963443	57	20	5	1	0	0	0	1	0	5	0	2	32	10	43	cloud	wind	9	24	1	2874		147.5	0.5
6.6.1	mac	0	2023-04-27	12:02:27	1	1	1	experiment	2	experiment_U	6166	1	51	dynamic	POS	1						51	20	5	1	0	0	0	1	0	5	0	2	32	10	43	cloud	wind	9	24	1	2874		147.5	0.5
6.6.1	mac	0	2023-04-27	12:02:27	1	1	1	experiment	2	dispFeedback_U	1000	1	51	dynamic	POS	1	148.4499999999999886313	1	148.4499999999999886313	148.4499999999999886313	0.3876199660328263352	51	20	5	0	0	0	0	2	0	5	0	2	32	11	44	cloud	wind	9	24	1	4966		152.5	5
6.6.1	mac	0	2023-04-27	12:02:27	1	1	1	experiment	2	experiment_U	6500	1	97	dynamic	POS	1						97	20	5	0	0	0	0	2	0	5	0	2	32	11	44	cloud	wind	9	24	1	4966		152.5	5
6.6.1	mac	0	2023-04-27	12:02:27	1	1	1	experiment	2	dispFeedback_U	1000	1	97	dynamic	POS	1	9.4299999999999997158	1	9.4299999999999997158	9.4299999999999997158	0.7405664906233004885	97	20	5	0	0	0	0	3	0	5	0	2	32	12	45	cloud	wind	9	24	1	2600		152.5	0
6.6.1	mac	0	2023-04-27	12:02:27	1	1	1	experiment	2	experiment_U	4037	1	51	dynamic	POS	1						51	20	5	0	0	0	0	3	0	5	0	2	32	12	45	cloud	wind	9	24	1	2600		152.5	0
6.6.1	mac	0	2023-04-27	12:02:27	1	1	1	experiment	2	dispFeedback_U	1000	1	51	dynamic	POS	1	4.8000000000000007105	1	4.8000000000000007105	4.8000000000000007105	0.4702952081501239889	51	20	5	1	0	0	0	4	0	6	0	2	32	13	46	cloud	wind	9	24	1	2837		153	0.5
6.6.1	mac	0	2023-04-27	12:02:27	1	1	1	experiment	2	experiment_U	4354	1	44	dynamic	POS	1						44	20	5	1	0	0	0	4	0	6	0	2	32	13	46	cloud	wind	9	24	1	2837		153	0.5
6.6.1	mac	0	2023-04-27	12:02:27	1	1	1	experiment	2	dispFeedback_U	1000	1	44	dynamic	POS	1	11.7699999999999995737	1	11.7699999999999995737	11.7699999999999995737	0.914887131171973178	44	20	5	1	0	0	0	5	0	7	0	2	32	14	47	cloud	wind	9	24	1	2804		153.5	0.5
6.6.1	mac	0	2023-04-27	12:02:27	1	1	1	experiment	2	experiment_U	4642	1	40	dynamic	POS	1						40	20	5	1	0	0	0	5	0	7	0	2	32	14	47	cloud	wind	9	24	1	2804		153.5	0.5
6.6.1	mac	0	2023-04-27	12:02:27	1	1	1	experiment	2	dispFeedback_U	1000	1	40	dynamic	POS	1	10.9100000000000001421	1	10.9100000000000001421	10.9100000000000001421	0.9850705370737870004	40	20	5	1	0	0	0	6	0	8	0	2	32	15	48	cloud	wind	9	24	1	2892		154	0.5
6.6.1	mac	0	2023-04-27	12:02:27	1	1	1	experiment	2	experiment_U	1125	1	15	dynamic	POS	1						15	20	5	1	0	0	0	6	0	8	0	2	32	15	48	cloud	wind	9	24	1	2892		154	0.5
6.6.1	mac	0	2023-04-27	12:02:27	1	1	1	experiment	2	dispFeedback_U	1000	1	15	dynamic	POS	1	9.5199999999999995737	1	9.5199999999999995737	9.5199999999999995737	0.0279121068371255207	15	20	5	1	0	0	0	7	0	9	0	2	32	16	49	cloud	wind	9	24	1	3125		154.5	0.5
6.6.1	mac	0	2023-04-27	12:02:27	1	1	1	experiment	2	experiment_U	2887	1	76	dynamic	POS	1						76	20	5	1	0	0	0	7	0	9	0	2	32	16	49	cloud	wind	9	24	1	3125		154.5	0.5
6.6.1	mac	0	2023-04-27	12:02:27	1	1	1	experiment	2	dispFeedback_U	1000	1	76	dynamic	POS	1	9.2400000000000002132	1	9.2400000000000002132	9.2400000000000002132	0.1174767420435037374	76	20	5	1	0	0	0	8	0	10	0	2	32	17	50	cloud	wind	9	24	1	2937		155	0.5
6.6.1	mac	0	2023-04-27	12:02:27	1	1	1	experiment	2	experiment_U	865	1	18	dynamic	POS	1						18	20	5	1	0	0	0	8	0	10	0	2	32	17	50	cloud	wind	9	24	1	2937		155	0.5
6.6.1	mac	0	2023-04-27	12:02:27	1	1	1	experiment	2	dispFeedback_U	1000	1	18	dynamic	POS	1	4.1199999999999992184	1	4.1199999999999992184	4.1199999999999992184	0.7733425511450838785	18	20	5	1	0	0	0	9	0	11	0	2	32	18	51	cloud	wind	9	24	1	3015		155.5	0.5
6.6.1	mac	0	2023-04-27	12:02:27	1	1	1	experiment	2	experiment_U	2109	1	90	dynamic	POS	1						90	20	5	1	0	0	0	9	0	11	0	2	32	18	51	cloud	wind	9	24	1	3015		155.5	0.5
6.6.1	mac	0	2023-04-27	12:02:27	1	1	1	experiment	2	dispFeedback_U	1000	1	90	dynamic	POS	1	8	1	8	8	0.1935561311416225949	90	20	5	1	0	0	0	10	0	12	0	2	32	19	52	cloud	wind	9	24	1	2859		156	0.5
6.6.1	mac	0	2023-04-27	12:02:27	1	1	1	experiment	2	experiment_U	2551	1	82	dynamic	POS	1						82	20	5	1	0	0	0	10	0	12	0	2	32	19	52	cloud	wind	9	24	1	2859		156	0.5
6.6.1	mac	0	2023-04-27	12:02:27	1	1	1	experiment	2	dispFeedback_U	1000	1	82	dynamic	POS	1	5.6099999999999994316	1	5.6099999999999994316	5.6099999999999994316	0.447864587988672902	82	20	5	1	0	0	0	11	0	13	0	2	32	20	53	cloud	wind	9	24	1	2901		156.5	0.5
6.6.1	mac	0	2023-04-27	12:02:27	1	1	1	experiment	2	experiment_U	2110	1	92	dynamic	POS	1						92	20	5	1	0	0	0	11	0	13	0	2	32	20	53	cloud	wind	9	24	1	2901		156.5	0.5
6.6.1	mac	0	2023-04-27	12:02:27	1	1	1	experiment	2	dispFeedback_U	1000	1	92	dynamic	POS	1	10.2899999999999991473	1	10.2899999999999991473	10.2899999999999991473	0.6147442386985626506	92	20	5	1	0	0	0	12	0	14	0	2	32	21	54	cloud	wind	9	24	1	2960		157	0.5
6.6.1	mac	0	2023-04-27	12:02:27	1	1	1	experiment	2	experiment_U	2792	1	78	dynamic	POS	1						78	20	5	1	0	0	0	12	0	14	0	2	32	21	54	cloud	wind	9	24	1	2960		157	0.5
6.6.1	mac	0	2023-04-27	12:02:27	1	1	1	experiment	2	dispFeedback_U	1000	1	78	dynamic	POS	1	10.3200000000000002842	1	10.3200000000000002842	10.3200000000000002842	0.4211603662514035729	78	20	5	1	0	0	0	13	0	15	0	2	32	22	55	cloud	wind	9	24	1	2942		157.5	0.5
6.6.1	mac	0	2023-04-27	12:02:27	1	1	1	experiment	2	experiment_U	4023	1	52	dynamic	POS	1						52	20	5	1	0	0	0	13	0	15	0	2	32	22	55	cloud	wind	9	24	1	2942		157.5	0.5
6.6.1	mac	0	2023-04-27	12:02:27	1	1	1	experiment	2	dispFeedback_U	1000	1	52	dynamic	POS	1	13.7699999999999995737	1	13.7699999999999995737	13.7699999999999995737	0.7685121225119829758	52	20	5	1	0	0	0	14	0	16	0	2	32	23	56	cloud	wind	9	24	1	2873		158	0.5
6.6.1	mac	0	2023-04-27	12:02:27	1	1	1	experiment	2	experiment_U	1076	1	9	dynamic	POS	1						9	20	5	1	0	0	0	14	0	16	0	2	32	23	56	cloud	wind	9	24	1	2873		158	0.5
6.6.1	mac	0	2023-04-27	12:02:27	1	1	1	experiment	2	dispFeedback_U	1000	1	9	dynamic	POS	1	12.1199999999999992184	1	12.1199999999999992184	12.1199999999999992184	0.5297617205720771549	9	20	5	1	0	0	0	15	0	17	0	2	32	24	57	cloud	wind	9	24	1	2776		158.5	0.5
6.6.1	mac	0	2023-04-27	12:02:27	1	1	1	experiment	2	experiment_U	1734	1	98	dynamic	POS	1						98	20	5	1	0	0	0	15	0	17	0	2	32	24	57	cloud	wind	9	24	1	2776		158.5	0.5
6.6.1	mac	0	2023-04-27	12:02:27	1	1	1	experiment	2	dispFeedback_U	1000	1	98	dynamic	POS	1	8.3200000000000002842	1	8.3200000000000002842	8.3200000000000002842	0.1897347853960783259	98	20	5	1	0	0	0	16	0	18	0	2	32	25	58	cloud	wind	9	24	1	2884		159	0.5
6.6.1	mac	0	2023-04-27	12:02:27	1	1	1	experiment	2	experiment_U	4687	1	39	dynamic	POS	1						39	20	5	1	0	0	0	16	0	18	0	2	32	25	58	cloud	wind	9	24	1	2884		159	0.5
6.6.1	mac	0	2023-04-27	12:02:27	1	1	1	experiment	2	dispFeedback_U	1000	1	39	dynamic	POS	1	8.7400000000000002132	1	8.7400000000000002132	8.7400000000000002132	0.4229625355040101398	39	20	5	1	0	0	0	17	0	19	0	2	32	26	59	cloud	wind	9	24	1	2887		159.5	0.5
6.6.1	mac	0	2023-04-27	12:02:27	1	1	1	experiment	2	experiment_U	1456	1	4	dynamic	POS	1						4	20	5	1	0	0	0	17	0	19	0	2	32	26	59	cloud	wind	9	24	1	2887		159.5	0.5
6.6.1	mac	0	2023-04-27	12:02:27	1	1	1	experiment	2	dispFeedback_U	1000	1	4	dynamic	POS	1	16.4200000000000017053	1	16.4200000000000017053	16.4200000000000017053	0.031137674588509294	4	20	5	1	0	0	0	18	0	20	0	2	32	27	60	cloud	wind	9	24	1	2906		160	0.5
6.6.1	mac	0	2023-04-27	12:02:27	1	1	1	experiment	2	experiment_U	4453	1	45	dynamic	POS	1						45	20	5	1	0	0	0	18	0	20	0	2	32	27	60	cloud	wind	9	24	1	2906		160	0.5
6.6.1	mac	0	2023-04-27	12:02:27	1	1	1	experiment	2	dispFeedback_U	1000	1	45	dynamic	POS	1	17.9900000000000019895	1	17.9900000000000019895	17.9900000000000019895	0.388758442920809244	45	20	5	1	0	0	0	19	0	21	0	2	32	28	61	cloud	wind	9	24	2	2953		160.5	0.5
6.6.1	mac	0	2023-04-27	12:02:27	1	1	1	experiment	2	experiment_U	2495	1	10	dynamic	POS	1						10	20	5	1	0	0	0	19	0	21	0	2	32	28	61	cloud	wind	9	24	2	2953		160.5	0.5
6.6.1	mac	0	2023-04-27	12:02:27	1	1	1	experiment	2	dispFeedback_U	1000	1	10	dynamic	POS	1	92.2099999999999937472	1	92.2099999999999937472	92.2099999999999937472	0.3373412374261164359	10	20	5	0	1	0	1	19	1	21	0	2	32	29	62	cloud	wind	9	24	2	4245		164	3.5
6.6.1	mac	0	2023-04-27	12:02:27	1	1	1	experiment	2	experiment_U	3466	1	91	dynamic	POS	1						91	20	5	0	1	0	1	19	1	21	0	2	32	29	62	cloud	wind	9	24	2	4245		164	3.5
6.6.1	mac	0	2023-04-27	12:02:27	1	1	1	experiment	2	dispFeedback_U	1000	1	91	dynamic	POS	1	111.4500000000000028422	1	111.4500000000000028422	111.4500000000000028422	0.7876698262495150926	91	20	5	0	1	0	2	19	2	21	0	2	32	30	63	cloud	wind	9	24	2	4266		168	4
6.6.1	mac	0	2023-04-27	12:02:27	1	1	1	experiment	2	experiment_U	3005	1	100	dynamic	POS	1						100	20	5	0	1	0	2	19	2	21	0	2	32	30	63	cloud	wind	9	24	2	4266		168	4
6.6.1	mac	0	2023-04-27	12:02:27	1	1	1	experiment	2	dispFeedback_U	1000	1	100	dynamic	POS	1	82.3799999999999954525	1	82.3799999999999954525	82.3799999999999954525	0.7859366100248733611	100	20	5	0	1	0	3	19	3	21	0	2	32	31	64	cloud	wind	9	24	0	4255		171	3
6.6.1	mac	0	2023-04-27	12:02:27	1	1	1	experiment	2	experiment_noU	4132	1	79	dynamic	POS	1						79	20	5	0	1	0	3	19	3	21	0	2	32	31	64	cloud	wind	9	24	0	4255		171	3
6.6.1	mac	0	2023-04-27	12:02:27	1	1	1	experiment	2	dispFeedback_noU	1000	1	79	dynamic	POS	1	93.4899999999999948841	1	93.4899999999999948841	93.4899999999999948841	0.8427093305724462358	79	20	5	0	1	0	3	19	3	21	0	2	32	32	65	cloud	wind	9	24	0	4332		174.5	3.5
