build	computer.platform	computer.touch	date	time	subject	group	sessionid	blockcode	blocknum	trialcode	latency	preClockFreezeBlock	list.preClockFreeze.currentvalue	list.ITI.currentvalue	list.ISI.currentvalue	trial.instructions5_1.response	trial.instructions5_2.response	startPos	scrfunc	rtvspos	randStart	mag	freq	ev	inc	rng	fogPos1	fogPos_out	windPos2	windPos_out	chooseFog1	chooseWind2	choose_unc_att1	choose_unc_att_out1	choose_unc_att2	choose_unc_att_out2	unc_att_count1	unc_att_count_out1	unc_att_count2	unc_att_count_out2	chooseAttentionalControl	chooseUncertainty	blockCount	ntrials	trialCount	meta_trialCount	attentional_control	local_uncertainty	unc_att_start1	unc_att_start2	unc_att_block	list.rt_0.currentindex	rt_shifted	pos_shifted	totalPoints	totalEarnings	Earnings
6.6.1	mac	0	2023-06-29	20:08:33	1	1	1	experiment	1	experiment_noU	543	2	750	240	420			59	dynamic	POS	1						20		10		0	0	0	0	0	0	0	0	0	0	0	0	1	2	1	1	wind	cloud	10	27	0	0			0	0	
6.6.1	mac	0	2023-06-29	20:08:33	1	1	1	experiment	1	dispFeedback_noU	1000	2	750	240	420			59	dynamic	POS	1	150.6200000000000045475	0.6999999999999999556	105.4339999999999974989	1	0.920850976817507938	20		10		0	0	0	0	0	0	0	0	0	0	0	0	1	2	1	1	wind	cloud	10	27	0	1	4743	341.4959999999999809006	1	0.5	0.5
6.6.1	mac	0	2023-06-29	20:08:33	1	1	1	experiment	1	experiment_noU	470	2	750	340	310			50	dynamic	POS	1						20		10		0	0	0	0	0	0	0	0	0	0	0	0	1	2	2	2	wind	cloud	10	27	0	1	4743	341.4959999999999809006	1	0.5	0.5
6.6.1	mac	0	2023-06-29	20:08:33	1	1	1	experiment	1	dispFeedback_noU	1000	2	750	340	310			50	dynamic	POS	1	113.2600000000000051159	0.6999999999999999556	79.2819999999999964757	113.2600000000000051159	0.1962694009291635344	20		10		0	0	0	0	0	0	0	0	0	0	0	0	1	2	2	2	wind	cloud	10	27	0	2	4220	303.8399999999999749889	114.2600000000000051159	4.5	4
6.6.1	mac	0	2023-06-29	20:08:33	1	1	1	dumITI	2	experiment_noU	476	2	750	230	290			93	dynamic	POS	1						20		10		0	0	0	0	0	0	0	0	0	0	0	0	1	2	3	3	wind	cloud	10	27	0	2	4220	303.8399999999999749889	114.2600000000000051159	4.5	4
6.6.1	mac	0	2023-06-29	20:08:33	1	1	1	dumITI	2	dispFeedback_noU	1000	2	750	230	290			93	dynamic	POS	1	10.5700000000000002842	0.6999999999999999556	7.3990000000000000213	1	0.725747168233093598	20		10		0	0	0	0	0	0	0	0	0	0	0	0	1	2	3	3	wind	cloud	10	27	0	3	1376	99.0720000000000027285	115.2600000000000051159	5	0.5
6.6.1	mac	0	2023-06-29	20:08:33	1	1	1	dumITI	2	experiment_noU	597	2	750	310	410			75	dynamic	POS	1						20		10		0	0	0	0	0	0	0	0	0	0	0	0	1	2	4	4	wind	cloud	10	27	0	3	1376	99.0720000000000027285	115.2600000000000051159	5	0.5
6.6.1	mac	0	2023-06-29	20:08:33	1	1	1	dumITI	2	dispFeedback_noU	1000	2	750	310	410			75	dynamic	POS	1	44.7999999999999971578	0.6999999999999999556	31.3599999999999958789	1	0.9845614049082066499	20		10		0	0	0	0	0	0	0	0	0	0	0	0	1	2	4	4	wind	cloud	10	27	0	4	597	42.9840000000000017621	116.2600000000000051159	5.5	0.5
6.6.1	mac	0	2023-06-29	20:08:33	1	1	1	dumITI	2	experiment_noU	518	2	750	260	520			79	dynamic	POS	1						20		10		0	0	0	0	0	0	0	0	0	0	0	0	1	2	5	5	wind	cloud	10	27	0	4	597	42.9840000000000017621	116.2600000000000051159	5.5	0.5
6.6.1	mac	0	2023-06-29	20:08:33	1	1	1	dumITI	2	dispFeedback_noU	1000	2	750	260	520			79	dynamic	POS	1	28.1799999999999997158	0.6999999999999999556	19.7259999999999990905	1	0.7005368782441450115	20		10		0	0	0	0	0	0	0	0	0	0	0	0	1	2	5	5	wind	cloud	10	27	0	5	718	51.6959999999999979536	117.2600000000000051159	6	0.5
6.6.1	mac	0	2023-06-29	20:08:33	1	1	1	dumITI	2	experiment_noU	611	2	750	380	200			24	dynamic	POS	1						20		10		0	0	0	0	0	0	0	0	0	0	0	0	1	2	6	6	wind	cloud	10	27	0	5	718	51.6959999999999979536	117.2600000000000051159	6	0.5
6.6.1	mac	0	2023-06-29	20:08:33	1	1	1	dumITI	2	dispFeedback_noU	1000	2	750	380	200			24	dynamic	POS	1	23.190000000000001279	0.6999999999999999556	16.23300000000000054	23.190000000000001279	0.2521330791646924641	20		10		0	0	0	0	0	0	0	0	0	0	0	0	1	2	6	6	wind	cloud	10	27	0	6	3061	220.3919999999999959073	140.450000000000017053	6.5	0.5
6.6.1	mac	0	2023-06-29	20:08:33	1	1	1	dumITI	2	experiment_noU	750	2	750	160	330			23	dynamic	POS	1						20		10		0	0	0	0	0	0	0	0	0	0	0	0	1	2	7	7	wind	cloud	10	27	0	6	3061	220.3919999999999959073	140.450000000000017053	6.5	0.5
6.6.1	mac	0	2023-06-29	20:08:33	1	1	1	dumITI	2	dispFeedback_noU	1000	2	750	160	330			23	dynamic	POS	1	25.9299999999999997158	0.6999999999999999556	18.150999999999999801	25.9299999999999997158	0.6507478492918302715	20		10		0	0	0	0	0	0	0	0	0	0	0	0	1	2	7	7	wind	cloud	10	27	0	7	3150	226.8000000000000113687	166.3800000000000238742	7.5	1
6.6.1	mac	0	2023-06-29	20:08:33	1	1	1	dumITI	2	experiment_noU	747	2	750	280	280			7	dynamic	POS	1						20		10		0	0	0	0	0	0	0	0	0	0	0	0	1	2	8	8	wind	cloud	10	27	0	7	3150	226.8000000000000113687	166.3800000000000238742	7.5	1
6.6.1	mac	0	2023-06-29	20:08:33	1	1	1	dumITI	2	dispFeedback_noU	1000	2	750	280	280			7	dynamic	POS	1	9.1600000000000001421	0.6999999999999999556	6.4119999999999999218	9.1600000000000001421	0.3739546182039087951	20		10		0	0	0	0	0	0	0	0	0	0	0	0	1	2	8	8	wind	cloud	10	27	0	8	2347	168.9840000000000088676	175.5400000000000204636	8	0.5
6.6.1	mac	0	2023-06-29	20:08:33	1	1	1	dumITI	2	experiment_noU	760	2	750	360	340			91	dynamic	POS	1						20		10		0	0	0	0	0	0	0	0	0	0	0	0	1	2	9	9	wind	cloud	10	27	0	8	2347	168.9840000000000088676	175.5400000000000204636	8	0.5
6.6.1	mac	0	2023-06-29	20:08:33	1	1	1	dumITI	2	dispFeedback_noU	1000	2	750	360	340			91	dynamic	POS	1	11.3200000000000002842	0.6999999999999999556	7.9239999999999994884	1	0.742352327970404291	20		10		0	0	0	0	0	0	0	0	0	0	0	0	1	2	9	9	wind	cloud	10	27	0	9	1560	112.3199999999999931788	176.5400000000000204636	8.5	0.5
6.6.1	mac	0	2023-06-29	20:08:33	1	1	1	dumITI	2	experiment_U	1732	2	750	270	270			56	dynamic	POS	1						20	210	10		0	0	0	0	0	0	0	1	0	0	0	0	1	2	10	10	wind	cloud	10	27	1	9	1560	112.3199999999999931788	176.5400000000000204636	8.5	0.5
6.6.1	mac	0	2023-06-29	20:08:33	1	1	1	dumITI	2	dispFeedback_U	1000	2	750	270	270			56	dynamic	POS	1	8.8399999999999998579	0.6999999999999999556	6.1879999999999997229	8.8399999999999998579	0.4000916093122427464	20	210	10		0	0	0	0	0	0	1	1	0	0	0	0	1	2	10	10	wind	cloud	10	27	1	10	782	56.3040000000000020464	185.3800000000000238742	9	0.5
6.6.1	mac	0	2023-06-29	20:08:33	1	1	1	dumITI	2	experiment_U	3830	2	750	220	470			59	dynamic	POS	1						20	210	10		0	0	0	0	0	0	1	2	0	0	0	0	1	2	11	11	wind	cloud	10	27	1	10	782	56.3040000000000020464	185.3800000000000238742	9	0.5
6.6.1	mac	0	2023-06-29	20:08:33	1	1	1	dumITI	2	dispFeedback_U	1000	2	750	220	470			59	dynamic	POS	1	29.9200000000000017053	0.6999999999999999556	20.9439999999999990621	1	0.8772303904120880569	20	210	10		1	0	1	1	0	0	2	2	0	0	0	1	1	2	11	11	wind	cloud	10	27	1	11	3030	218.1599999999999965894	186.3800000000000238742	9.5	0.5
6.6.1	mac	0	2023-06-29	20:08:33	1	1	1	dumITI	2	experiment_U	3845	2	750	320	400			60	dynamic	POS	1						20	210	10		1	0	1	0	0	0	2	3	0	0	0	0	1	2	12	12	wind	cloud	10	27	1	11	3030	218.1599999999999965894	186.3800000000000238742	9.5	0.5
6.6.1	mac	0	2023-06-29	20:08:33	1	1	1	dumITI	2	dispFeedback_U	1000	2	750	320	400			60	dynamic	POS	1	20.5899999999999998579	0.6999999999999999556	14.4129999999999984794	20.5899999999999998579	0.4092320512070395377	20	210	10		1	0	2	1	0	0	3	3	0	0	0	1	1	2	12	12	wind	cloud	10	27	1	12	3095	222.8400000000000034106	206.9700000000000272848	10	0.5
6.6.1	mac	0	2023-06-29	20:08:33	1	1	1	dumITI	2	experiment_noU	1027	2	750	500	260			28	dynamic	POS	1						20		10		0	0	2	0	0	0	3	0	0	0	0	0	1	2	13	13	wind	cloud	10	27	0	12	3095	222.8400000000000034106	206.9700000000000272848	10	0.5
6.6.1	mac	0	2023-06-29	20:08:33	1	1	1	dumITI	2	dispFeedback_noU	1000	2	750	500	260			28	dynamic	POS	1	50.4600000000000008527	0.6999999999999999556	35.3219999999999956231	50.4600000000000008527	0.4107597457270044106	20		10		0	0	2	0	0	0	3	0	0	0	0	0	1	2	13	13	wind	cloud	10	27	0	13	3677	264.7440000000000281943	257.4300000000000068212	12	2
6.6.1	mac	0	2023-06-29	20:08:33	1	1	1	dumITI	2	experiment_noU	1045	2	750	460	360			75	dynamic	POS	1						20		10		0	0	2	0	0	0	3	0	0	0	0	0	1	2	14	14	wind	cloud	10	27	0	13	3677	264.7440000000000281943	257.4300000000000068212	12	2
6.6.1	mac	0	2023-06-29	20:08:33	1	1	1	dumITI	2	dispFeedback_noU	1000	2	750	460	360			75	dynamic	POS	1	5.0400000000000000355	0.6999999999999999556	3.5279999999999995808	5.0400000000000000355	0.381236533723128157	20		10		0	0	2	0	0	0	3	0	0	0	0	0	1	2	14	14	wind	cloud	10	27	0	14	1045	75.2399999999999948841	262.4700000000000272848	12.5	0.5
6.6.1	mac	0	2023-06-29	20:08:33	1	1	1	dumITI	2	experiment_noU	1270	2	750	450	460			25	dynamic	POS	1						20		10		0	0	2	0	0	0	3	0	0	0	0	0	1	2	15	15	wind	cloud	10	27	0	14	1045	75.2399999999999948841	262.4700000000000272848	12.5	0.5
6.6.1	mac	0	2023-06-29	20:08:33	1	1	1	dumITI	2	dispFeedback_noU	1000	2	750	450	460			25	dynamic	POS	1	53.9900000000000019895	0.6999999999999999556	37.792999999999999261	53.9900000000000019895	0.1494882225872688486	20		10		0	0	2	0	0	0	3	0	0	0	0	0	1	2	15	15	wind	cloud	10	27	0	15	3770	271.4399999999999977263	316.4600000000000363798	14.5	2
6.6.1	mac	0	2023-06-29	20:08:33	1	1	1	dumITI	2	experiment_noU	850	2	750	400	390			96	dynamic	POS	1						20		10		0	0	2	0	0	0	3	0	0	0	0	0	1	2	16	16	wind	cloud	10	27	0	15	3770	271.4399999999999977263	316.4600000000000363798	14.5	2
6.6.1	mac	0	2023-06-29	20:08:33	1	1	1	dumITI	2	dispFeedback_noU	1000	2	750	400	390			96	dynamic	POS	1	3.3399999999999998579	0.6999999999999999556	2.3379999999999996341	3.3399999999999998579	0.5852511447354339369	20		10		0	0	2	0	0	0	3	0	0	0	0	0	1	2	16	16	wind	cloud	10	27	0	16	1900	136.8000000000000113687	319.8000000000000113687	15	0.5
6.6.1	mac	0	2023-06-29	20:08:33	1	1	1	dumITI	2	experiment_noU	580	2	750	110	220			58	dynamic	POS	1						20		10		0	0	2	0	0	0	3	0	0	0	0	0	1	2	17	17	wind	cloud	10	27	0	16	1900	136.8000000000000113687	319.8000000000000113687	15	0.5
6.6.1	mac	0	2023-06-29	20:08:33	1	1	1	dumITI	2	dispFeedback_noU	1000	2	750	110	220			58	dynamic	POS	1	165.6399999999999863576	0.6999999999999999556	115.9479999999999790816	165.6399999999999863576	0.2422994550416011916	20		10		0	0	2	0	0	0	3	0	0	0	0	0	1	2	17	17	wind	cloud	10	27	0	17	4730	340.5600000000000022737	485.4399999999999977263	20	5
6.6.1	mac	0	2023-06-29	20:08:33	1	1	1	dumITI	2	experiment_noU	1327	2	750	140	550			56	dynamic	POS	1						20		10		0	0	2	0	0	0	3	0	0	0	0	0	1	2	18	18	wind	cloud	10	27	0	17	4730	340.5600000000000022737	485.4399999999999977263	20	5
6.6.1	mac	0	2023-06-29	20:08:33	1	1	1	dumITI	2	dispFeedback_noU	1000	2	750	140	550			56	dynamic	POS	1	56.619999999999997442	0.6999999999999999556	39.6339999999999932356	56.619999999999997442	0.252136577212283497	20		10		0	0	2	0	0	0	3	0	0	0	0	0	1	2	18	18	wind	cloud	10	27	0	18	377	27.1439999999999983515	542.0599999999999454303	22	2
6.6.1	mac	0	2023-06-29	20:08:33	1	1	1	dumITI	2	experiment_noU	1363	2	750	150	300			63	dynamic	POS	1						20		10		0	0	2	0	0	0	3	0	0	0	0	0	1	2	19	19	wind	cloud	10	27	0	18	377	27.1439999999999983515	542.0599999999999454303	22	2
6.6.1	mac	0	2023-06-29	20:08:33	1	1	1	dumITI	2	dispFeedback_noU	1000	2	750	150	300			63	dynamic	POS	1	23.4699999999999988631	0.6999999999999999556	16.4289999999999984936	1	0.9615868821185051818	20		10		0	0	2	0	0	0	3	0	0	0	0	0	1	2	19	19	wind	cloud	10	27	0	19	763	54.9359999999999999432	543.0599999999999454303	22.5	0.5
6.6.1	mac	0	2023-06-29	20:08:33	1	1	1	dumITI	2	experiment_noU	999	2	750	410	370			71	dynamic	POS	1						20		10		0	0	2	0	0	0	3	0	0	0	0	0	1	2	20	20	wind	cloud	10	27	0	19	763	54.9359999999999999432	543.0599999999999454303	22.5	0.5
6.6.1	mac	0	2023-06-29	20:08:33	1	1	1	dumITI	2	dispFeedback_noU	1000	2	750	410	370			71	dynamic	POS	1	20.5799999999999982947	0.6999999999999999556	14.4059999999999970299	1	0.9914744934047280411	20		10		0	0	2	0	0	0	3	0	0	0	0	0	1	2	20	20	wind	cloud	10	27	0	20	799	57.5279999999999986926	544.0599999999999454303	23	0.5
6.6.1	mac	0	2023-06-29	20:08:33	1	1	1	dumITI	2	experiment_noU	1031	2	750	420	540			90	dynamic	POS	1						20		10		0	0	2	0	0	0	3	0	0	0	0	0	1	2	21	21	wind	cloud	10	27	0	20	799	57.5279999999999986926	544.0599999999999454303	23	0.5
6.6.1	mac	0	2023-06-29	20:08:33	1	1	1	dumITI	2	dispFeedback_noU	1000	2	750	420	540			90	dynamic	POS	1	20.2100000000000008527	0.6999999999999999556	14.1470000000000002416	1	0.9953486886795955835	20		10		0	0	2	0	0	0	3	0	0	0	0	0	1	2	21	21	wind	cloud	10	27	0	21	1781	128.2319999999999993179	545.0599999999999454303	23.5	0.5
6.6.1	mac	0	2023-06-29	20:08:33	1	1	1	dumITI	2	experiment_noU	1882	2	750	100	500			13	dynamic	POS	1						20		10		0	0	2	0	0	0	3	0	0	0	0	0	1	2	22	22	wind	cloud	10	27	0	21	1781	128.2319999999999993179	545.0599999999999454303	23.5	0.5
6.6.1	mac	0	2023-06-29	20:08:33	1	1	1	dumITI	2	dispFeedback_noU	493	2	750	100	500			13	dynamic	POS	1	79.3299999999999982947	0.6999999999999999556	55.5309999999999988063	1	0.7000140491174566826	20		10		0	0	2	0	0	0	3	0	0	0	0	0	1	2	22	22	wind	cloud	10	27	0	22	3782	272.3039999999999736247	546.0599999999999454303	24	0.5
