build	computer.platform	computer.touch	date	time	subject	group	sessionid	blockcode	blocknum	trialcode	latency	randStart	startPos	scrfunc	rtvspos	randStart	circleproportion	mag	freq	ev	inc	rng	startPos	n_revolutions	totalPoints	totalEarnings	Earnings
6.6.1	mac	0	2023-01-19	12:03:36	1	1	1	experiment	1	experiment_noU	1742	1	98	CEVR	POS	1	0.3300000000000000155						98	2859	0	0	
6.6.1	mac	0	2023-01-19	12:03:36	1	1	1	experiment	1	dispFeedback_noU	1000	1	98	CEVR	POS	1	0.3300000000000000155	94	0.2693427620632279362	25.4182612312811997413	0	0.8184166817968749896	98	2859	0	0	0
6.6.1	mac	0	2023-01-19	12:03:36	1	1	1	experiment	1	experiment_noU	1048	1	66	CEVR	POS	1	0.3300000000000000155						66	5932	0	0	0
6.6.1	mac	0	2023-01-19	12:03:36	1	1	1	experiment	1	dispFeedback_noU	1000	1	66	CEVR	POS	1	0.3300000000000000155	165	0.1823430019712757033	30.0709659250915244399	0	0.5585578800082574569	66	5932	0	0	0
6.6.1	mac	0	2023-01-19	12:03:36	1	1	1	experiment	1	experiment_U	573	1	59	CEVR	POS	1	0.3300000000000000155						59	8539	0	0	0
6.6.1	mac	0	2023-01-19	12:03:36	1	1	1	experiment	1	dispFeedback_U	1000	1	59	CEVR	POS	1	0.3300000000000000155	42	0.4424325247693884355	18.4178339596856908145	0	0.7327287962503565844	59	8539	0	0	0
6.6.1	mac	0	2023-01-19	12:03:36	1	1	1	experiment	1	experiment_U	468	1	82	CEVR	POS	1	0.3300000000000000155						82	11050	0	0	0
6.6.1	mac	0	2023-01-19	12:03:36	1	1	1	experiment	1	dispFeedback_U	1000	1	82	CEVR	POS	1	0.3300000000000000155	157	0.1881720430107526876	29.4731182795698920529	157	0.0979713651114076794	82	11050	157	10	10
6.6.1	mac	0	2023-01-19	12:03:36	1	1	1	experiment	1	experiment_U	896	1	74	CEVR	POS	1	0.3300000000000000155						74	13977	157	10	10
6.6.1	mac	0	2023-01-19	12:03:36	1	1	1	experiment	1	dispFeedback_U	1000	1	74	CEVR	POS	1	0.3300000000000000155	157	0.1889407645170703143	29.6313101838342554117	157	0.0948627253749553812	74	13977	314	20	10
6.6.1	mac	0	2023-01-19	12:03:36	1	1	1	experiment	1	experiment_U	2362	1	44	CEVR	POS	1	0.3300000000000000155						44	18376	314	20	10
6.6.1	mac	0	2023-01-19	12:03:36	1	1	1	experiment	1	dispFeedback_U	1000	1	44	CEVR	POS	1	0.3300000000000000155	157	0.1880081300813008227	29.4796747967479717545	0	0.4644379549344158642	44	18376	314	20	0
6.6.1	mac	0	2023-01-19	12:03:36	1	1	1	experiment	1	experiment_U	1226	1	67	CEVR	POS	1	0.3300000000000000155						67	21623	314	20	0
6.6.1	mac	0	2023-01-19	12:03:36	1	1	1	experiment	1	dispFeedback_U	1000	1	67	CEVR	POS	1	0.3300000000000000155	155	0.1883910386965376993	29.2759674134419611846	0	0.9772216861548883582	67	21623	314	20	0
6.6.1	mac	0	2023-01-19	12:03:36	1	1	1	experiment	1	experiment_U	536	1	4	CEVR	POS	1	0.3300000000000000155						4	24183	314	20	0
6.6.1	mac	0	2023-01-19	12:03:36	1	1	1	experiment	1	dispFeedback_U	1000	1	4	CEVR	POS	1	0.3300000000000000155	126	0.2266363318165908192	28.6144557227861398019	0	0.6460740355882034214	4	24183	314	20	0
6.6.1	mac	0	2023-01-19	12:03:36	1	1	1	experiment	1	experiment_U	1938	1	52	CEVR	POS	1	0.3300000000000000155						52	28150	314	20	0
6.6.1	mac	0	2023-01-19	12:03:36	1	1	1	experiment	1	dispFeedback_U	1000	1	52	CEVR	POS	1	0.3300000000000000155	157	0.18735532407407407	29.5057870370370309843	157	0.1872317216329350553	52	28150	471	30	10
6.6.1	mac	0	2023-01-19	12:03:36	1	1	1	experiment	1	experiment_U	4001	1	10	CEVR	POS	1	0.3300000000000000155						10	34182	471	30	10
6.6.1	mac	0	2023-01-19	12:03:36	1	1	1	experiment	1	dispFeedback_U	1000	1	10	CEVR	POS	1	0.3300000000000000155	159	0.18635774931644844	29.5456900273420686176	0	0.4372092956763714011	10	34182	471	30	0
6.6.1	mac	0	2023-01-19	12:03:36	1	1	1	experiment	1	experiment_noU	3088	1	30	CEVR	POS	1	0.3300000000000000155						30	39300	471	30	0
6.6.1	mac	0	2023-01-19	12:03:36	1	1	1	experiment	1	dispFeedback_noU	1000	1	30	CEVR	POS	1	0.3300000000000000155	158	0.1887204896531623488	29.8286213931798300791	0	0.8638368474468208769	30	39300	471	30	0
6.6.1	mac	0	2023-01-19	12:03:36	1	1	1	experiment	1	experiment_noU	2210	1	47	CEVR	POS	1	0.3300000000000000155						47	43539	471	30	0
6.6.1	mac	0	2023-01-19	12:03:36	1	1	1	experiment	1	dispFeedback_noU	1000	1	47	CEVR	POS	1	0.3300000000000000155	162	0.1879535558780841831	30.421625544267055119	0	0.9436714250928888159	47	43539	471	30	0
6.6.1	mac	0	2023-01-19	12:03:36	1	1	1	experiment	1	experiment_noU	601	1	4	CEVR	POS	1	0.3300000000000000155						4	46162	471	30	0
6.6.1	mac	0	2023-01-19	12:03:36	1	1	1	experiment	1	dispFeedback_noU	1000	1	4	CEVR	POS	1	0.3300000000000000155	123	0.2292441140024782942	28.2887236679058204913	0	0.7956695483987381579	4	46162	471	30	0
6.6.1	mac	0	2023-01-19	12:03:36	1	1	1	experiment	2	experiment_noU	2382	1	22	DEV	POS	1	0.3300000000000000155						22	50594	471	30	0
6.6.1	mac	0	2023-01-19	12:03:36	1	1	1	experiment	2	dispFeedback_noU	1000	1	22	DEV	POS	1	0.3300000000000000155	69	0.214614696004490596	14.7034252340768389899	0	0.5755322446524008262	22	50594	471	30	0
6.6.1	mac	0	2023-01-19	12:03:36	1	1	1	experiment	2	experiment_noU	2094	1	28	DEV	POS	1	0.3300000000000000155						28	54721	471	30	0
6.6.1	mac	0	2023-01-19	12:03:36	1	1	1	experiment	2	dispFeedback_noU	813	1	28	DEV	POS	1	0.3300000000000000155	64	0.2133855697857216238	13.5522889604812863951	0	0.2869881853198139599	28	54721	471	30	0
