build	computer.platform	computer.touch	date	time	subject	group	sessionid	blockcode	blocknum	trialcode	latency	randStart	startPos	scrfunc	rtvspos	randStart	circleproportion	mag	freq	ev	inc	rng	startPos	n_revolutions	totalPoints	totalEarnings	Earnings
6.6.1	mac	0	2023-01-19	12:30:34	1	1	1	instructions	1	instructions1	652	1	75	IEV	POS	1	0.3300000000000000155						75	0	0	0	
6.6.1	mac	0	2023-01-19	12:30:34	1	1	1	instructions	1	displayGoodJob	762	1	75	IEV	POS	1	0.3300000000000000155						75	0	0	0	
6.6.1	mac	0	2023-01-19	12:30:34	1	1	1	instructions	1	instructions3	1026	1	75	IEV	POS	1	0.3300000000000000155						75	0	0	0	
6.6.1	mac	0	2023-01-19	12:30:34	1	1	1	instructions	1	countdown	1000	1	75	IEV	POS	1	0.3300000000000000155						75	0	0	0	
6.6.1	mac	0	2023-01-19	12:30:34	1	1	1	experiment	2	experiment_noU	491	1	4	IEV	POS	1	0.3300000000000000155						4	8380	0	0	
6.6.1	mac	0	2023-01-19	12:30:34	1	1	1	experiment	2	dispFeedback_noU	1000	1	4	IEV	POS	1	0.3300000000000000155	52	1.1112637990221241324	58.1455355884382782961	52	0.4111971253089600209	4	8380	52	6	6
6.6.1	mac	0	2023-01-19	12:30:34	1	1	1	experiment	2	experiment_noU	454	1	49	IEV	POS	1	0.3300000000000000155						49	10874	52	6	6
6.6.1	mac	0	2023-01-19	12:30:34	1	1	1	experiment	2	dispFeedback_noU	1000	1	49	IEV	POS	1	0.3300000000000000155	176	1.0140472191765876886	178.3389704584030539536	176	0.7596153879444150769	49	10874	228	16	10
6.6.1	mac	0	2023-01-19	12:30:34	1	1	1	experiment	2	experiment_noU	370	1	80	IEV	POS	1	0.3300000000000000155						80	13274	228	16	10
6.6.1	mac	0	2023-01-19	12:30:34	1	1	1	experiment	2	dispFeedback_noU	1000	1	80	IEV	POS	1	0.3300000000000000155	28	0.9854502964924052311	27.283551131623138275	28	0.2771110644743570717	80	13274	256	20	4
6.6.1	mac	0	2023-01-19	12:30:34	1	1	1	experiment	2	experiment_noU	337	1	56	IEV	POS	1	0.3300000000000000155						56	15641	256	20	4
6.6.1	mac	0	2023-01-19	12:30:34	1	1	1	experiment	2	dispFeedback_noU	1000	1	56	IEV	POS	1	0.3300000000000000155	205	0.9845340149883728964	202.0934049702536867699	205	0.4452616533835562218	56	15641	461	30	10
6.6.1	mac	0	2023-01-19	12:30:34	1	1	1	experiment	2	experiment_noU	323	1	50	IEV	POS	1	0.3300000000000000155						50	17993	461	30	10
6.6.1	mac	0	2023-01-19	12:30:34	1	1	1	experiment	2	dispFeedback_noU	1000	1	50	IEV	POS	1	0.3300000000000000155	167	1.0237663554158777934	171.0602059419948659524	167	0.0264903779668943899	50	17993	628	40	10
6.6.1	mac	0	2023-01-19	12:30:34	1	1	1	experiment	2	experiment_noU	324	1	33	IEV	POS	1	0.3300000000000000155						33	20344	628	40	10
6.6.1	mac	0	2023-01-19	12:30:34	1	1	1	experiment	2	dispFeedback_noU	1000	1	33	IEV	POS	1	0.3300000000000000155	98	1.1021183595926336007	107.8860541067894018852	98	0.7880183814065573333	33	20344	726	49	9
6.6.1	mac	0	2023-01-19	12:30:34	1	1	1	experiment	2	experiment_noU	294	1	27	IEV	POS	1	0.3300000000000000155						27	22664	726	49	9
6.6.1	mac	0	2023-01-19	12:30:34	1	1	1	experiment	2	dispFeedback_noU	1000	1	27	IEV	POS	1	0.3300000000000000155	85	1.1181406083389067163	94.5653479803284113814	85	0.0059130759923516482	27	22664	811	57	8
6.6.1	mac	0	2023-01-19	12:30:34	1	1	1	experiment	2	experiment_noU	410	1	77	IEV	POS	1	0.3300000000000000155						77	25096	811	57	8
6.6.1	mac	0	2023-01-19	12:30:34	1	1	1	experiment	2	dispFeedback_noU	1000	1	77	IEV	POS	1	0.3300000000000000155	21	0.9708719669224435966	20.3434480665090156037	21	0.818446940467331352	77	25096	832	59	2
6.6.1	mac	0	2023-01-19	12:30:34	1	1	1	experiment	2	experiment_noU	279	1	64	IEV	POS	1	0.3300000000000000155						64	27399	832	59	2
6.6.1	mac	0	2023-01-19	12:30:34	1	1	1	experiment	2	dispFeedback_noU	1000	1	64	IEV	POS	1	0.3300000000000000155	265	0.9381268597746228455	248.8057707046829136743	265	0.3040541180651760711	64	27399	1097	69	10
6.6.1	mac	0	2023-01-19	12:30:34	1	1	1	experiment	2	experiment_noU	218	1	52	IEV	POS	1	0.3300000000000000155						52	29655	1097	69	10
6.6.1	mac	0	2023-01-19	12:30:34	1	1	1	experiment	2	dispFeedback_noU	1000	1	52	IEV	POS	1	0.3300000000000000155	163	1.0243560529490245425	166.5275657223802738827	163	0.961786511112420528	52	29655	1260	79	10
6.6.1	mac	0	2023-01-19	12:30:34	1	1	1	experiment	2	experiment_noU	208	1	63	IEV	POS	1	0.3300000000000000155						63	31894	1260	79	10
6.6.1	mac	0	2023-01-19	12:30:34	1	1	1	experiment	2	dispFeedback_noU	1000	1	63	IEV	POS	1	0.3300000000000000155	241	0.9548590805913012014	229.7732489094289860532	241	0.61739384327488811	63	31894	1501	89	10
6.6.1	mac	0	2023-01-19	12:30:34	1	1	1	experiment	2	experiment_noU	406	1	66	IEV	POS	1	0.3300000000000000155						66	34326	1501	89	10
6.6.1	mac	0	2023-01-19	12:30:34	1	1	1	experiment	2	dispFeedback_noU	1000	1	66	IEV	POS	1	0.3300000000000000155	321	0.9062195611127860095	290.8111706129560047884	321	0.0056818267343756342	66	34326	1822	99	10
6.6.1	mac	0	2023-01-19	12:30:34	1	1	1	experiment	2	experiment_noU	261	1	79	IEV	POS	1	0.3300000000000000155						79	36613	1822	99	10
6.6.1	mac	0	2023-01-19	12:30:34	1	1	1	experiment	2	dispFeedback_noU	1000	1	79	IEV	POS	1	0.3300000000000000155	20	0.9642648292136866139	19.4810592282084193982	20	0.7448086609935408164	79	36613	1842	101	2
6.6.1	mac	0	2023-01-19	12:30:34	1	1	1	experiment	2	experiment_noU	250	1	4	IEV	POS	1	0.3300000000000000155						4	38885	1842	101	2
6.6.1	mac	0	2023-01-19	12:30:34	1	1	1	experiment	2	dispFeedback_noU	1000	1	4	IEV	POS	1	0.3300000000000000155	44	1.0971690030098693036	48.3828405315365159822	44	0.0552459659649166199	4	38885	1886	106	5
6.6.1	mac	0	2023-01-19	12:30:34	1	1	1	experiment	2	experiment_noU	238	1	24	IEV	POS	1	0.3300000000000000155						24	41156	1886	106	5
6.6.1	mac	0	2023-01-19	12:30:34	1	1	1	experiment	2	dispFeedback_noU	1000	1	24	IEV	POS	1	0.3300000000000000155	78	1.1234320835596047772	87.5154147649838307643	78	0.6997212447923890632	24	41156	1964	114	8
6.6.1	mac	0	2023-01-19	12:30:34	1	1	1	experiment	2	experiment_noU	355	1	94	IEV	POS	1	0.3300000000000000155						94	43540	1964	114	8
6.6.1	mac	0	2023-01-19	12:30:34	1	1	1	experiment	2	dispFeedback_noU	1000	1	94	IEV	POS	1	0.3300000000000000155	40	1.0645010088142194959	42.7853829732249550943	40	0.9117827354724944433	94	43540	2004	119	5
6.6.1	mac	0	2023-01-19	12:30:34	1	1	1	experiment	2	experiment_noU	243	1	96	IEV	POS	1	0.3300000000000000155						96	45811	2004	119	5
6.6.1	mac	0	2023-01-19	12:30:34	1	1	1	experiment	2	dispFeedback_noU	1000	1	96	IEV	POS	1	0.3300000000000000155	35	1.0633389279700098395	37.1576976860532326441	35	0.4195408519402940017	96	45811	2039	124	5
6.6.1	mac	0	2023-01-19	12:30:34	1	1	1	experiment	2	experiment_noU	249	1	93	IEV	POS	1	0.3300000000000000155						93	48083	2039	124	5
6.6.1	mac	0	2023-01-19	12:30:34	1	1	1	experiment	2	dispFeedback_noU	1000	1	93	IEV	POS	1	0.3300000000000000155	38	1.0486890958796530882	39.904921054005647818	38	0.7255560631690444184	93	48083	2077	129	5
6.6.1	mac	0	2023-01-19	12:30:34	1	1	1	experiment	2	experiment_noU	237	1	78	IEV	POS	1	0.3300000000000000155						78	50354	2077	129	5
6.6.1	mac	0	2023-01-19	12:30:34	1	1	1	experiment	2	dispFeedback_noU	1000	1	78	IEV	POS	1	0.3300000000000000155	17	0.954173284951667755	16.3094759213216669025	17	0.4122009476209527179	78	50354	2094	131	2
6.6.1	mac	0	2023-01-19	12:30:34	1	1	1	experiment	2	experiment_noU	321	1	36	IEV	POS	1	0.3300000000000000155						36	52722	2094	131	2
6.6.1	mac	0	2023-01-19	12:30:34	1	1	1	experiment	2	dispFeedback_noU	1000	1	36	IEV	POS	1	0.3300000000000000155	112	1.0921388967504512824	122.6923740209704192239	112	0.3483117957013454058	36	52722	2206	141	10
6.6.1	mac	0	2023-01-19	12:30:34	1	1	1	experiment	2	experiment_U	306	1	72	IEV	POS	1	0.3300000000000000155						72	55074	2206	141	10
6.6.1	mac	0	2023-01-19	12:30:34	1	1	1	experiment	2	dispFeedback_U	1000	1	72	IEV	POS	1	0.3300000000000000155	16	0.9220186835706716266	14.5670584526940913861	16	0.077161195473084504	72	55074	2222	142	1
6.6.1	mac	0	2023-01-19	12:30:34	1	1	1	experiment	2	experiment_U	244	1	11	IEV	POS	1	0.3300000000000000155						11	57361	2222	142	1
6.6.1	mac	0	2023-01-19	12:30:34	1	1	1	experiment	2	dispFeedback_U	1000	1	11	IEV	POS	1	0.3300000000000000155	60	1.1158278958187672902	67.1725302053052786277	60	0.7628260049416744071	11	57361	2282	148	6
6.6.1	mac	0	2023-01-19	12:30:34	1	1	1	experiment	2	experiment_U	232	1	53	IEV	POS	1	0.3300000000000000155						53	59633	2282	148	6
6.6.1	mac	0	2023-01-19	12:30:34	1	1	1	experiment	2	dispFeedback_U	1000	1	53	IEV	POS	1	0.3300000000000000155	174	1.016717268552875586	177.334896649006395819	174	0.3243077162942634151	53	59633	2456	158	10
6.6.1	mac	0	2023-01-19	12:30:34	1	1	1	experiment	2	experiment_U	254	1	70	IEV	POS	1	0.3300000000000000155						70	61932	2456	158	10
6.6.1	mac	0	2023-01-19	12:30:34	1	1	1	experiment	2	dispFeedback_U	1000	1	70	IEV	POS	1	0.3300000000000000155	20	0.9005654860823258945	17.7984670344945286047	20	0.0816345205720594436	70	61932	2476	160	2
6.6.1	mac	0	2023-01-19	12:30:34	1	1	1	experiment	2	experiment_U	130	1	97	IEV	POS	1	0.3300000000000000155						97	64096	2476	160	2
6.6.1	mac	0	2023-01-19	12:30:34	1	1	1	experiment	2	dispFeedback_U	1000	1	97	IEV	POS	1	0.3300000000000000155	40	1.0570872192735314421	41.9228337578276821773	40	0.8597318129287407906	97	64096	2516	165	5
6.6.1	mac	0	2023-01-19	12:30:34	1	1	1	experiment	2	experiment_U	236	1	94	IEV	POS	1	0.3300000000000000155						94	66351	2516	165	5
6.6.1	mac	0	2023-01-19	12:30:34	1	1	1	experiment	2	dispFeedback_U	1000	1	94	IEV	POS	1	0.3300000000000000155	35	1.0525743813370169732	36.6082965138824434348	35	0.1527319827938294072	94	66351	2551	170	5
6.6.1	mac	0	2023-01-19	12:30:34	1	1	1	experiment	2	experiment_U	225	1	71	IEV	POS	1	0.3300000000000000155						71	68591	2551	170	5
6.6.1	mac	0	2023-01-19	12:30:34	1	1	1	experiment	2	dispFeedback_U	1000	1	71	IEV	POS	1	0.3300000000000000155	18	0.9035341463951597207	16.2988501595382473397	18	0.2582530654636800982	71	68591	2569	172	2
6.6.1	mac	0	2023-01-19	12:30:34	1	1	1	experiment	2	experiment_U	198	1	67	IEV	POS	1	0.3300000000000000155						67	70814	2569	172	2
6.6.1	mac	0	2023-01-19	12:30:34	1	1	1	experiment	2	dispFeedback_U	1000	1	67	IEV	POS	1	0.3300000000000000155	275	0.9284804690354784285	255.6688875945514212162	275	0.0003691979219133961	67	70814	2844	182	10
6.6.1	mac	0	2023-01-19	12:30:34	1	1	1	experiment	2	experiment_U	62	1	79	IEV	POS	1	0.3300000000000000155						79	72894	2844	182	10
6.6.1	mac	0	2023-01-19	12:30:34	1	1	1	experiment	2	dispFeedback_U	1000	1	79	IEV	POS	1	0.3300000000000000155	22	0.9368723120807027627	20.8727593731257350385	22	0.4431134370256013533	79	72894	2866	184	2
6.6.1	mac	0	2023-01-19	12:30:34	1	1	1	experiment	2	experiment_U	218	1	39	IEV	POS	1	0.3300000000000000155						39	75134	2866	184	2
6.6.1	mac	0	2023-01-19	12:30:34	1	1	1	experiment	2	dispFeedback_U	1000	1	39	IEV	POS	1	0.3300000000000000155	111	1.0885981495414835951	121.0798635643455014588	111	0.6993530610807596748	39	75134	2977	194	10
6.6.1	mac	0	2023-01-19	12:30:34	1	1	1	experiment	2	experiment_U	272	1	27	IEV	POS	1	0.3300000000000000155						27	77421	2977	194	10
6.6.1	mac	0	2023-01-19	12:30:34	1	1	1	experiment	2	dispFeedback_U	1000	1	27	IEV	POS	1	0.3300000000000000155	90	1.1188818510386653315	100.249256912553391885	90	0.5597887345496073142	27	77421	3067	203	9
6.6.1	mac	0	2023-01-19	12:30:34	1	1	1	experiment	2	experiment_U	293	1	60	IEV	POS	1	0.3300000000000000155						60	79725	3067	203	9
6.6.1	mac	0	2023-01-19	12:30:34	1	1	1	experiment	2	dispFeedback_U	1000	1	60	IEV	POS	1	0.3300000000000000155	232	0.9637226968924613724	223.8823366239190875149	232	0.3019790163501117064	60	79725	3299	213	10
6.6.1	mac	0	2023-01-19	12:30:34	1	1	1	experiment	2	experiment_U	248	1	49	IEV	POS	1	0.3300000000000000155						49	81996	3299	213	10
6.6.1	mac	0	2023-01-19	12:30:34	1	1	1	experiment	2	dispFeedback_U	1000	1	49	IEV	POS	1	0.3300000000000000155	159	1.0381273891948188393	164.7791491213016570327	159	0.7747799779229750383	49	81996	3458	223	10
6.6.1	mac	0	2023-01-19	12:30:34	1	1	1	experiment	3	experiment_noU	493	1	95	DEV	POS	1	0.3300000000000000155						95	84524	3458	223	10
6.6.1	mac	0	2023-01-19	12:30:34	1	1	1	experiment	3	dispFeedback_noU	870	1	95	DEV	POS	1	0.3300000000000000155	63	0.5482685717505237921	34.2727088719203294431	63	0.1460212031719324288	95	84524	3521	230	7
