build	computer.platform	computer.touch	date	time	subject	group	sessionid	blockcode	blocknum	trialcode	latency	preClockFreezeBlock	list.preClockFreeze.currentvalue	list.ITI.currentvalue	list.ISI.currentvalue	trial.instructions5_1.response	trial.instructions5_2.response	startPos	scrfunc	rtvspos	randStart	mag	freq	ev	inc	rng	fogPos1	fogPos_out	windPos2	windPos_out	chooseFog1	chooseWind2	choose_unc_att1	choose_unc_att_out1	choose_unc_att2	choose_unc_att_out2	unc_att_count1	unc_att_count_out1	unc_att_count2	unc_att_count_out2	chooseAttentionalControl	chooseUncertainty	blockCount	ntrials	trialCount	meta_trialCount	attentional_control	local_uncertainty	unc_att_start1	unc_att_start2	unc_att_block	list.rt_0.currentindex	rt_shifted	pos_shifted	totalPoints	totalEarnings	Earnings
6.6.1	mac	0	2023-06-30	12:35:16	1	1	1	experiment	1	preFreeze_noU	750	2	750					75	dynamic	POS	1						50	0	45	0	0	0	0	0	0	0	0	0	0	0	0	0	1	4	0	0	wind	cloud	10	24	0	0			0	0	
6.6.1	mac	0	2023-06-30	12:35:16	1	1	1	experiment	1	experiment_noU	731	2	750	230	280			20	dynamic	POS	1						50		45		0	0	0	0	0	0	0	0	0	0	0	0	1	4	1	1	wind	cloud	10	24	0	0			0	0	
6.6.1	mac	0	2023-06-30	12:35:16	1	1	1	experiment	1	dispFeedback_noU	1000	2	750	230	280			20	dynamic	POS	1	21.4800000000000004263	0.6999999999999999556	15.0359999999999995879	21.4800000000000004263	0.6202744277241347692	50		45		0	0	0	0	0	0	0	0	0	0	0	0	1	4	1	1	wind	cloud	10	24	0	1	2981	214.6320000000000050022	21.4800000000000004263	0.5	0.5
6.6.1	mac	0	2023-06-30	12:35:16	1	1	1	experiment	1	preFreeze_noU	750	2	750	230	280			20	dynamic	POS	1	21.4800000000000004263	0.6999999999999999556	15.0359999999999995879	21.4800000000000004263	0.6202744277241347692	50		45		0	0	0	0	0	0	0	0	0	0	0	0	1	4	1	1	wind	cloud	10	24	0	1	2981	214.6320000000000050022	21.4800000000000004263	0.5	0.5
6.6.1	mac	0	2023-06-30	12:35:16	1	1	1	experiment	1	experiment_noU	1355	2	750	380	320			12	dynamic	POS	1						50		45		0	0	0	0	0	0	0	0	0	0	0	0	1	4	2	2	wind	cloud	10	24	0	1	2981	214.6320000000000050022	21.4800000000000004263	0.5	0.5
6.6.1	mac	0	2023-06-30	12:35:16	1	1	1	experiment	1	dispFeedback_noU	1000	2	750	380	320			12	dynamic	POS	1	28.9200000000000017053	0.6999999999999999556	20.2439999999999997726	28.9200000000000017053	0.1394692831997455251	50		45		0	0	0	0	0	0	0	0	0	0	0	0	1	4	2	2	wind	cloud	10	24	0	2	3205	230.7599999999999909051	50.4000000000000056843	1.5	1
6.6.1	mac	0	2023-06-30	12:35:16	1	1	1	experiment	1	preFreeze_noU	750	2	750	380	320			12	dynamic	POS	1	28.9200000000000017053	0.6999999999999999556	20.2439999999999997726	28.9200000000000017053	0.1394692831997455251	50		45		0	0	0	0	0	0	0	0	0	0	0	0	1	4	2	2	wind	cloud	10	24	0	2	3205	230.7599999999999909051	50.4000000000000056843	1.5	1
6.6.1	mac	0	2023-06-30	12:35:16	1	1	1	experiment	1	experiment_noU	1395	2	750	280	430			61	dynamic	POS	1						50		45		0	0	0	0	0	0	0	0	0	0	0	0	1	4	3	3	wind	cloud	10	24	0	2	3205	230.7599999999999909051	50.4000000000000056843	1.5	1
6.6.1	mac	0	2023-06-30	12:35:16	1	1	1	experiment	1	dispFeedback_noU	1000	2	750	280	430			61	dynamic	POS	1	33.7800000000000011369	0.6999999999999999556	23.6460000000000007958	33.7800000000000011369	0.2553342546465187657	50		45		0	0	0	0	0	0	0	0	0	0	0	0	1	4	3	3	wind	cloud	10	24	0	3	695	50.0399999999999991473	84.1800000000000068212	3	1.5
6.6.1	mac	0	2023-06-30	12:35:16	1	1	1	experiment	1	preFreeze_noU	750	2	750	280	430			61	dynamic	POS	1	33.7800000000000011369	0.6999999999999999556	23.6460000000000007958	33.7800000000000011369	0.2553342546465187657	50		45		0	0	0	0	0	0	0	0	0	0	0	0	1	4	3	3	wind	cloud	10	24	0	3	695	50.0399999999999991473	84.1800000000000068212	3	1.5
6.6.1	mac	0	2023-06-30	12:35:16	1	1	1	experiment	1	experiment_noU	976	2	750	110	580			47	dynamic	POS	1						50		45		0	0	0	0	0	0	0	0	0	0	0	0	1	4	4	4	wind	cloud	10	24	0	3	695	50.0399999999999991473	84.1800000000000068212	3	1.5
6.6.1	mac	0	2023-06-30	12:35:16	1	1	1	experiment	1	dispFeedback_noU	1000	2	750	110	580			47	dynamic	POS	1	165.1999999999999886313	0.6999999999999999556	115.6399999999999863576	165.1999999999999886313	0.4030718282803594787	50		45		0	0	0	0	0	0	0	0	0	0	0	0	1	4	4	4	wind	cloud	10	24	0	4	4576	329.4719999999999799911	249.3799999999999954525	8	5
6.6.1	mac	0	2023-06-30	12:35:16	1	1	1	experiment	2	preFreeze_noU	750	2	750	110	580			47	dynamic	POS	1	165.1999999999999886313	0.6999999999999999556	115.6399999999999863576	165.1999999999999886313	0.4030718282803594787	10		40		0	0	0	0	0	0	0	0	0	0	0	0	2	4	0	4	wind	cloud	8	26	0	4	4576	329.4719999999999799911	249.3799999999999954525	8	5
6.6.1	mac	0	2023-06-30	12:35:16	1	1	1	experiment	2	experiment_noU	1292	2	750	500	500			25	dynamic	POS	1						10		40		0	0	0	0	0	0	0	0	0	0	0	0	2	4	1	5	wind	cloud	8	26	0	4	4576	329.4719999999999799911	249.3799999999999954525	8	5
6.6.1	mac	0	2023-06-30	12:35:16	1	1	1	experiment	2	dispFeedback_noU	1000	2	750	500	500			25	dynamic	POS	1	52.5900000000000034106	0.6999999999999999556	36.8130000000000023874	52.5900000000000034106	0.4447509866312032156	10		40		0	0	0	0	0	0	0	0	0	0	0	0	2	4	1	5	wind	cloud	8	26	0	5	3792	273.0240000000000009095	301.9700000000000272848	10	2
6.6.1	mac	0	2023-06-30	12:35:16	1	1	1	experiment	2	preFreeze_noU	750	2	750	500	500			25	dynamic	POS	1	52.5900000000000034106	0.6999999999999999556	36.8130000000000023874	52.5900000000000034106	0.4447509866312032156	10		40		0	0	0	0	0	0	0	0	0	0	0	0	2	4	1	5	wind	cloud	8	26	0	5	3792	273.0240000000000009095	301.9700000000000272848	10	2
6.6.1	mac	0	2023-06-30	12:35:16	1	1	1	experiment	2	experiment_noU	1189	2	750	250	450			43	dynamic	POS	1						10		40		0	0	0	0	0	0	0	0	0	0	0	0	2	4	2	6	wind	cloud	8	26	0	5	3792	273.0240000000000009095	301.9700000000000272848	10	2
6.6.1	mac	0	2023-06-30	12:35:16	1	1	1	experiment	2	dispFeedback_noU	1000	2	750	250	450			43	dynamic	POS	1	165.5	0.6999999999999999556	115.8499999999999943157	165.5	0.6392512374183282331	10		40		0	0	0	0	0	0	0	0	0	0	0	0	2	4	2	6	wind	cloud	8	26	0	6	4589	330.4080000000000154614	467.4700000000000272848	15	5
6.6.1	mac	0	2023-06-30	12:35:16	1	1	1	experiment	2	preFreeze_noU	750	2	750	250	450			43	dynamic	POS	1	165.5	0.6999999999999999556	115.8499999999999943157	165.5	0.6392512374183282331	10		40		0	0	0	0	0	0	0	0	0	0	0	0	2	4	2	6	wind	cloud	8	26	0	6	4589	330.4080000000000154614	467.4700000000000272848	15	5
6.6.1	mac	0	2023-06-30	12:35:16	1	1	1	experiment	2	experiment_noU	2890	2	750	170	420			10	dynamic	POS	1						10		40		0	0	0	0	0	0	0	0	0	0	0	0	2	4	3	7	wind	cloud	8	26	0	6	4589	330.4080000000000154614	467.4700000000000272848	15	5
6.6.1	mac	0	2023-06-30	12:35:16	1	1	1	experiment	2	dispFeedback_noU	1000	2	750	170	420			10	dynamic	POS	1	151.5699999999999931788	0.6999999999999999556	106.0989999999999895408	151.5699999999999931788	0.5166735303394202061	10		40		0	0	0	0	0	0	0	0	0	0	0	0	2	4	3	7	wind	cloud	8	26	0	7	4640	334.0799999999999840838	619.0399999999999636202	20	5
6.6.1	mac	0	2023-06-30	12:35:16	1	1	1	experiment	2	preFreeze_noU	750	2	750	170	420			10	dynamic	POS	1	151.5699999999999931788	0.6999999999999999556	106.0989999999999895408	151.5699999999999931788	0.5166735303394202061	10		40		0	0	0	0	0	0	0	0	0	0	0	0	2	4	3	7	wind	cloud	8	26	0	7	4640	334.0799999999999840838	619.0399999999999636202	20	5
6.6.1	mac	0	2023-06-30	12:35:16	1	1	1	experiment	2	experiment_noU	3626	2	750	370	470			94	dynamic	POS	1						10		40		0	0	0	0	0	0	0	0	0	0	0	0	2	4	4	8	wind	cloud	8	26	0	7	4640	334.0799999999999840838	619.0399999999999636202	20	5
6.6.1	mac	0	2023-06-30	12:35:16	1	1	1	experiment	2	dispFeedback_noU	1000	2	750	370	470			94	dynamic	POS	1	161.3700000000000045475	0.6999999999999999556	112.9589999999999889724	161.3700000000000045475	0.5544063303513466767	10		40		0	0	0	0	0	0	0	0	0	0	0	0	2	4	4	8	wind	cloud	8	26	0	8	4576	329.4719999999999799911	780.4099999999999681677	25	5
6.6.1	mac	0	2023-06-30	12:35:16	1	1	1	experiment	3	preFreeze_noU	250	2	250	370	470			94	dynamic	POS	1	161.3700000000000045475	0.6999999999999999556	112.9589999999999889724	161.3700000000000045475	0.5544063303513466767	5		35		0	0	0	0	0	0	0	0	0	0	0	0	3	4	0	8	wind	cloud	9	25	0	8	4576	329.4719999999999799911	780.4099999999999681677	25	5
6.6.1	mac	0	2023-06-30	12:35:16	1	1	1	experiment	3	experiment_noU	2017	2	250	340	510			27	dynamic	POS	1						5		35		0	0	0	0	0	0	0	0	0	0	0	0	3	4	1	9	wind	cloud	9	25	0	8	4576	329.4719999999999799911	780.4099999999999681677	25	5
6.6.1	mac	0	2023-06-30	12:35:16	1	1	1	experiment	3	dispFeedback_noU	1000	2	250	340	510			27	dynamic	POS	1	155.0200000000000102318	0.6999999999999999556	108.5139999999999957936	1	0.7655275817414577411	5		35		0	0	0	0	0	0	0	0	0	0	0	0	3	4	1	9	wind	cloud	9	25	0	9	4617	332.4239999999999781721	781.4099999999999681677	25.5	0.5
6.6.1	mac	0	2023-06-30	12:35:16	1	1	1	experiment	3	preFreeze_noU	250	2	250	340	510			27	dynamic	POS	1	155.0200000000000102318	0.6999999999999999556	108.5139999999999957936	1	0.7655275817414577411	5		35		0	0	0	0	0	0	0	0	0	0	0	0	3	4	1	9	wind	cloud	9	25	0	9	4617	332.4239999999999781721	781.4099999999999681677	25.5	0.5
6.6.1	mac	0	2023-06-30	12:35:16	1	1	1	experiment	3	experiment_noU	1306	2	250	470	210			73	dynamic	POS	1						5		35		0	0	0	0	0	0	0	0	0	0	0	0	3	4	2	10	wind	cloud	9	25	0	9	4617	332.4239999999999781721	781.4099999999999681677	25.5	0.5
