build	computer.platform	computer.touch	date	time	subject	group	sessionid	blockcode	blocknum	trialcode	latency	randStart	startPos	scrfunc	rtvspos	randStart	circleproportion	mag	freq	ev	inc	rng	startPos	n_revolutions	totalPoints	totalEarnings	Earnings
6.6.1	mac	0	2023-01-18	14:00:27	1	1	1	experiment	1	experiment_noU	594	1	31	CEV	POS	1	0.3300000000000000155						31	1740	0	0	
6.6.1	mac	0	2023-01-18	14:00:27	1	1	1	experiment	1	dispFeedback_noU	1000	1	31	CEV	POS	1	0.3300000000000000155	87	0.4151428571428571468	36.1697142857142921457	87	0.2086950899587699804	31	1740	87	8	8
6.6.1	mac	0	2023-01-18	14:00:27	1	1	1	experiment	1	experiment_noU	459	1	89	CEV	POS	1	0.3300000000000000155						89	4236	87	8	8
6.6.1	mac	0	2023-01-18	14:00:27	1	1	1	experiment	1	dispFeedback_noU	1000	1	89	CEV	POS	1	0.3300000000000000155	51	0.7344285714285714306	37.734428571428573207	0	0.9878110189428113141	89	4236	87	8	0
6.6.1	mac	0	2023-01-18	14:00:27	1	1	1	experiment	1	experiment_U	1160	1	35	CEV	POS	1	0.3300000000000000155						35	7419	87	8	0
6.6.1	mac	0	2023-01-18	14:00:27	1	1	1	experiment	1	dispFeedback_U	1000	1	35	CEV	POS	1	0.3300000000000000155	119	0.3057142857142857162	36.3885714285714314542	119	0.1271590243855395819	35	7419	206	8	0
6.6.1	mac	0	2023-01-18	14:00:27	1	1	1	experiment	1	experiment_U	1016	1	44	CEV	POS	1	0.3300000000000000155						44	10459	206	8	0
6.6.1	mac	0	2023-01-18	14:00:27	1	1	1	experiment	1	dispFeedback_U	1000	1	44	CEV	POS	1	0.3300000000000000155	143	0.2620000000000000107	37.5240000000000009095	143	0.0750441320880884666	44	10459	349	8	0
6.6.1	mac	0	2023-01-18	14:00:27	1	1	1	experiment	1	experiment_U	814	1	9	CEV	POS	1	0.3300000000000000155						9	13306	349	8	0
6.6.1	mac	0	2023-01-18	14:00:27	1	1	1	experiment	1	dispFeedback_U	1000	1	9	CEV	POS	1	0.3300000000000000155	70	0.5408571428571429252	38.0817142857142911794	0	0.8712506019210560781	9	13306	349	8	0
6.6.1	mac	0	2023-01-18	14:00:27	1	1	1	experiment	1	experiment_U	1133	1	53	CEV	POS	1	0.3300000000000000155						53	16457	349	8	0
6.6.1	mac	0	2023-01-18	14:00:27	1	1	1	experiment	1	dispFeedback_U	1000	1	53	CEV	POS	1	0.3300000000000000155	37	0.8952857142857142403	33.4188571428571421507	37	0.8904117089441073718	53	16457	386	13	5
6.6.1	mac	0	2023-01-18	14:00:27	1	1	1	experiment	1	experiment_U	1213	1	72	CEV	POS	1	0.3300000000000000155						72	19705	386	13	5
6.6.1	mac	0	2023-01-18	14:00:27	1	1	1	experiment	1	dispFeedback_U	1000	1	72	CEV	POS	1	0.3300000000000000155	50	0.7481428571428572205	37.748142857142859441	50	0.2477902286331612192	72	19705	436	19	6
6.6.1	mac	0	2023-01-18	14:00:27	1	1	1	experiment	1	experiment_U	523	1	70	CEV	POS	1	0.3300000000000000155						70	22264	436	19	6
6.6.1	mac	0	2023-01-18	14:00:27	1	1	1	experiment	1	dispFeedback_U	1000	1	70	CEV	POS	1	0.3300000000000000155	46	0.8609999999999999876	39.5829999999999984084	46	0.4962734439168762224	70	22264	482	24	5
6.6.1	mac	0	2023-01-18	14:00:27	1	1	1	experiment	2	experiment_noU	899	1	85	IEV	POS	1	0.3300000000000000155						85	25208	482	24	5
6.6.1	mac	0	2023-01-18	14:00:27	1	1	1	experiment	2	dispFeedback_noU	1000	1	85	IEV	POS	1	0.3300000000000000155	40	1.0732753317159551276	43.1262553835503723576	40	0.6317092768456109564	85	25208	522	29	5
6.6.1	mac	0	2023-01-18	14:00:27	1	1	1	experiment	2	experiment_noU	493	1	54	IEV	POS	1	0.3300000000000000155						54	27751	522	29	5
6.6.1	mac	0	2023-01-18	14:00:27	1	1	1	experiment	2	dispFeedback_noU	1000	1	54	IEV	POS	1	0.3300000000000000155	215	0.9771463890719848111	210.5102921790129641977	215	0.495253574218427195	54	27751	737	29	5
6.6.1	mac	0	2023-01-18	14:00:27	1	1	1	experiment	2	experiment_U	3192	1	15	IEV	POS	1	0.3300000000000000155						15	32967	737	29	5
6.6.1	mac	0	2023-01-18	14:00:27	1	1	1	experiment	2	dispFeedback_U	1000	1	15	IEV	POS	1	0.3300000000000000155	15	0.9270775707321851078	14.180585372632494412	15	0.6894096275068376523	15	32967	752	30	1
6.6.1	mac	0	2023-01-18	14:00:27	1	1	1	experiment	2	experiment_U	3734	1	2	IEV	POS	1	0.3300000000000000155						2	38741	752	30	1
6.6.1	mac	0	2023-01-18	14:00:27	1	1	1	experiment	2	dispFeedback_U	1000	1	2	IEV	POS	1	0.3300000000000000155	17	0.9118697077351409774	15.3399554988720154824	17	0.896093683758772408	2	38741	769	32	2
6.6.1	mac	0	2023-01-18	14:00:27	1	1	1	experiment	2	experiment_noU	1550	1	46	IEV	POS	1	0.3300000000000000155						46	42340	769	32	2
6.6.1	mac	0	2023-01-18	14:00:27	1	1	1	experiment	2	dispFeedback_noU	1000	1	46	IEV	POS	1	0.3300000000000000155	23	0.914127866894095531	21.059297288436003015	23	0.0481601730101183442	46	42340	792	34	2
6.6.1	mac	0	2023-01-18	14:00:27	1	1	1	experiment	2	experiment_noU	2526	1	27	IEV	POS	1	0.3300000000000000155						27	46900	792	34	2
6.6.1	mac	0	2023-01-18	14:00:27	1	1	1	experiment	2	dispFeedback_noU	1000	1	27	IEV	POS	1	0.3300000000000000155	20	0.9177942289126060915	18.7132951337410666781	20	0.7370835476874102454	27	46900	812	36	2
6.6.1	mac	0	2023-01-18	14:00:27	1	1	1	endscreen	3	endscreen	4016	1	27	IEV	POS	1	0.3300000000000000155						27	46900	812	36	
