build	computer.platform	computer.touch	date	time	subject	group	sessionid	blockcode	blocknum	trialcode	latency	preClockFreezeBlock	list.preClockFreeze.currentvalue	list.ITI.currentvalue	list.ISI.currentvalue	trial.instructions5_1.response	trial.instructions5_2.response	startPos	scrfunc	rtvspos	randStart	mag	freq	ev	inc	rng	fogPos1	fogPos_out	windPos2	windPos_out	chooseFog1	chooseWind2	choose_unc_att1	choose_unc_att_out1	choose_unc_att2	choose_unc_att_out2	unc_att_count1	unc_att_count_out1	unc_att_count2	unc_att_count_out2	chooseAttentionalControl	chooseUncertainty	blockCount	ntrials	trialCount	meta_trialCount	attentional_control	local_uncertainty	unc_att_start1	unc_att_start2	unc_att_block	list.rt_0.currentindex	rt_shifted	pos_shifted	totalPoints	totalEarnings	Earnings
6.6.1	mac	0	2023-06-30	12:29:50	1	1	1	experiment	1	preFreeze_noU	750	2	750					75	dynamic	POS	1						35	0	15	0	0	0	0	0	0	0	0	0	0	0	0	0	1	2	0	0	wind	cloud	9	27	0	0			0	0	
6.6.1	mac	0	2023-06-30	12:29:50	1	1	1	experiment	1	experiment_noU	708	2	750	120	460			14	dynamic	POS	1						35		15		0	0	0	0	0	0	0	0	0	0	0	0	1	2	1	1	wind	cloud	9	27	0	0			0	0	
6.6.1	mac	0	2023-06-30	12:29:50	1	1	1	experiment	1	dispFeedback_noU	1000	2	750	120	460			14	dynamic	POS	1	16	0.6999999999999999556	11.1999999999999992895	16	0.3345456305738877534	35		15		0	0	0	0	0	0	0	0	0	0	0	0	1	2	1	1	wind	cloud	9	27	0	1	2658	191.3760000000000047748	16	0.5	0.5
6.6.1	mac	0	2023-06-30	12:29:50	1	1	1	experiment	1	experiment_noU	1288	2	750	290	370			36	dynamic	POS	1						35		15		0	0	0	0	0	0	0	0	0	0	0	0	1	2	2	2	wind	cloud	9	27	0	1	2658	191.3760000000000047748	16	0.5	0.5
6.6.1	mac	0	2023-06-30	12:29:50	1	1	1	experiment	1	dispFeedback_noU	1000	2	750	290	370			36	dynamic	POS	1	138.7299999999999897682	0.6999999999999999556	97.1109999999999899956	1	0.8564184240196874853	35		15		0	0	0	0	0	0	0	0	0	0	0	0	1	2	2	2	wind	cloud	9	27	0	2	4338	312.3360000000000127329	17	1	0.5
6.6.1	mac	0	2023-06-30	12:29:50	1	1	1	experiment	2	preFreeze_noU	750	2	750	290	370			36	dynamic	POS	1	138.7299999999999897682	0.6999999999999999556	97.1109999999999899956	1	0.8564184240196874853	15		45		0	0	0	0	0	0	0	0	0	0	0	0	2	2	0	2	wind	cloud	6	26	0	2	4338	312.3360000000000127329	17	1	0.5
6.6.1	mac	0	2023-06-30	12:29:50	1	1	1	experiment	2	experiment_noU	840	2	750	440	300			98	dynamic	POS	1						15		45		0	0	0	0	0	0	0	0	0	0	0	0	2	2	1	3	wind	cloud	6	26	0	2	4338	312.3360000000000127329	17	1	0.5
6.6.1	mac	0	2023-06-30	12:29:50	1	1	1	experiment	2	dispFeedback_noU	1000	2	750	440	300			98	dynamic	POS	1	10.2100000000000008527	0.6999999999999999556	7.1470000000000002416	10.2100000000000008527	0.439578311387351317	15		45		0	0	0	0	0	0	0	0	0	0	0	0	2	2	1	3	wind	cloud	6	26	0	3	1990	143.2800000000000011369	27.2100000000000008527	1.5	0.5
6.6.1	mac	0	2023-06-30	12:29:50	1	1	1	experiment	2	experiment_noU	1023	2	750	160	560			45	dynamic	POS	1						15		45		0	0	0	0	0	0	0	0	0	0	0	0	2	2	2	4	wind	cloud	6	26	0	3	1990	143.2800000000000011369	27.2100000000000008527	1.5	0.5
6.6.1	mac	0	2023-06-30	12:29:50	1	1	1	experiment	2	dispFeedback_noU	1000	2	750	160	560			45	dynamic	POS	1	152.1399999999999863576	0.6999999999999999556	106.4979999999999904503	152.1399999999999863576	0.4162491819393470127	15		45		0	0	0	0	0	0	0	0	0	0	0	0	2	2	2	4	wind	cloud	6	26	0	4	4523	325.6560000000000059117	179.3499999999999943157	6.5	5
6.6.1	mac	0	2023-06-30	12:29:50	1	1	1	experiment	3	preFreeze_noU	250	2	250	160	560			45	dynamic	POS	1	152.1399999999999863576	0.6999999999999999556	106.4979999999999904503	152.1399999999999863576	0.4162491819393470127	5		20		0	0	0	0	0	0	0	0	0	0	0	0	3	2	0	4	wind	cloud	5	25	0	4	4523	325.6560000000000059117	179.3499999999999943157	6.5	5
6.6.1	mac	0	2023-06-30	12:29:50	1	1	1	experiment	3	experiment_noU	838	2	250	280	470			49	dynamic	POS	1						5		20		0	0	0	0	0	0	0	0	0	0	0	0	3	2	1	5	wind	cloud	5	25	0	4	4523	325.6560000000000059117	179.3499999999999943157	6.5	5
6.6.1	mac	0	2023-06-30	12:29:50	1	1	1	experiment	3	dispFeedback_noU	1000	2	250	280	470			49	dynamic	POS	1	167.1800000000000068212	0.6999999999999999556	117.0259999999999962483	167.1800000000000068212	0.095872579863265292	5		20		0	0	0	0	0	0	0	0	0	0	0	0	3	2	1	5	wind	cloud	5	25	0	5	4538	326.7359999999999899956	346.5299999999999727152	11.5	5
6.6.1	mac	0	2023-06-30	12:29:50	1	1	1	experiment	3	experiment_noU	1174	2	250	230	430			26	dynamic	POS	1						5		20		0	0	0	0	0	0	0	0	0	0	0	0	3	2	2	6	wind	cloud	5	25	0	5	4538	326.7359999999999899956	346.5299999999999727152	11.5	5
6.6.1	mac	0	2023-06-30	12:29:50	1	1	1	experiment	3	dispFeedback_noU	1000	2	250	230	430			26	dynamic	POS	1	47.5900000000000034106	0.6999999999999999556	33.3130000000000023874	47.5900000000000034106	0.144723807960917189	5		20		0	0	0	0	0	0	0	0	0	0	0	0	3	2	2	6	wind	cloud	5	25	0	6	3724	268.1279999999999859028	394.1200000000000045475	13.5	2
6.6.1	mac	0	2023-06-30	12:29:50	1	1	1	experiment	4	preFreeze_noU	250	2	250	230	430			26	dynamic	POS	1	47.5900000000000034106	0.6999999999999999556	33.3130000000000023874	47.5900000000000034106	0.144723807960917189	40		25		0	0	0	0	0	0	0	0	0	0	0	0	4	2	0	6	wind	cloud	7	29	0	6	3724	268.1279999999999859028	394.1200000000000045475	13.5	2
6.6.1	mac	0	2023-06-30	12:29:50	1	1	1	experiment	4	experiment_noU	969	2	250	470	380			95	dynamic	POS	1						40		25		0	0	0	0	0	0	0	0	0	0	0	0	4	2	1	7	wind	cloud	7	29	0	6	3724	268.1279999999999859028	394.1200000000000045475	13.5	2
6.6.1	mac	0	2023-06-30	12:29:50	1	1	1	experiment	4	dispFeedback_noU	1000	2	250	470	380			95	dynamic	POS	1	8.4900000000000002132	0.6999999999999999556	5.9429999999999996163	8.4900000000000002132	0.6860902716140473423	40		25		0	0	0	0	0	0	0	0	0	0	0	0	4	2	1	7	wind	cloud	7	29	0	7	1969	141.7680000000000006821	402.6100000000000136424	14	0.5
6.6.1	mac	0	2023-06-30	12:29:50	1	1	1	experiment	4	experiment_noU	943	2	250	270	440			74	dynamic	POS	1						40		25		0	0	0	0	0	0	0	0	0	0	0	0	4	2	2	8	wind	cloud	7	29	0	7	1969	141.7680000000000006821	402.6100000000000136424	14	0.5
6.6.1	mac	0	2023-06-30	12:29:50	1	1	1	experiment	4	dispFeedback_noU	1000	2	250	270	440			74	dynamic	POS	1	16.5899999999999998579	0.6999999999999999556	11.6129999999999995453	16.5899999999999998579	0.3404713036353865796	40		25		0	0	0	0	0	0	0	0	0	0	0	0	4	2	2	8	wind	cloud	7	29	0	8	893	64.2960000000000064801	419.1999999999999886313	14.5	0.5
6.6.1	mac	0	2023-06-30	12:29:50	1	1	1	experiment	5	preFreeze_noU	750	2	750	270	440			74	dynamic	POS	1	16.5899999999999998579	0.6999999999999999556	11.6129999999999995453	16.5899999999999998579	0.3404713036353865796	1		50		0	0	0	0	0	0	0	0	0	0	0	0	5	2	0	8	wind	cloud	10	28	0	8	893	64.2960000000000064801	419.1999999999999886313	14.5	0.5
6.6.1	mac	0	2023-06-30	12:29:50	1	1	1	experiment	5	experiment_noU	993	2	750	380	330			65	dynamic	POS	1						1		50		0	0	0	0	0	0	0	0	0	0	0	0	5	2	1	9	wind	cloud	10	28	0	8	893	64.2960000000000064801	419.1999999999999886313	14.5	0.5
6.6.1	mac	0	2023-06-30	12:29:50	1	1	1	experiment	5	dispFeedback_noU	1000	2	750	380	330			65	dynamic	POS	1	29.5700000000000002842	0.6999999999999999556	20.6989999999999980673	1	0.9958450277326267308	1		50		0	0	0	0	0	0	0	0	0	0	0	0	5	2	1	9	wind	cloud	10	28	0	9	493	35.4960000000000022169	420.1999999999999886313	15	0.5
6.6.1	mac	0	2023-06-30	12:29:50	1	1	1	experiment	5	experiment_noU	1332	2	750	500	200			11	dynamic	POS	1						1		50		0	0	0	0	0	0	0	0	0	0	0	0	5	2	2	10	wind	cloud	10	28	0	9	493	35.4960000000000022169	420.1999999999999886313	15	0.5
6.6.1	mac	0	2023-06-30	12:29:50	1	1	1	experiment	5	dispFeedback_noU	1000	2	750	500	200			11	dynamic	POS	1	32.0700000000000002842	0.6999999999999999556	22.4489999999999980673	32.0700000000000002842	0.2265232229201410152	1		50		0	0	0	0	0	0	0	0	0	0	0	0	5	2	2	10	wind	cloud	10	28	0	10	3132	225.5039999999999906777	452.2699999999999818101	16.5	1.5
6.6.1	mac	0	2023-06-30	12:29:50	1	1	1	experiment	6	preFreeze_noU	750	2	750	500	200			11	dynamic	POS	1	32.0700000000000002842	0.6999999999999999556	22.4489999999999980673	32.0700000000000002842	0.2265232229201410152	10		5		0	0	0	0	0	0	0	0	0	0	0	0	6	2	0	10	wind	cloud	8	24	0	10	3132	225.5039999999999906777	452.2699999999999818101	16.5	1.5
6.6.1	mac	0	2023-06-30	12:29:50	1	1	1	experiment	6	experiment_noU	668	2	750	210	220			68	dynamic	POS	1						10		5		0	0	0	0	0	0	0	0	0	0	0	0	6	2	1	11	wind	cloud	8	24	0	10	3132	225.5039999999999906777	452.2699999999999818101	16.5	1.5
6.6.1	mac	0	2023-06-30	12:29:50	1	1	1	experiment	6	dispFeedback_noU	1000	2	750	210	220			68	dynamic	POS	1	35.1700000000000017053	0.6999999999999999556	24.6189999999999997726	35.1700000000000017053	0.0736039944630125509	10		5		0	0	0	0	0	0	0	0	0	0	0	0	6	2	1	11	wind	cloud	8	24	0	11	318	22.8960000000000007958	487.4399999999999977263	18	1.5
6.6.1	mac	0	2023-06-30	12:29:50	1	1	1	experiment	6	experiment_noU	547	2	750	430	310			32	dynamic	POS	1						10		5		0	0	0	0	0	0	0	0	0	0	0	0	6	2	2	12	wind	cloud	8	24	0	11	318	22.8960000000000007958	487.4399999999999977263	18	1.5
