build	computer.platform	computer.touch	date	time	subject	group	sessionid	blockcode	blocknum	trialcode	latency	randStart	startPos	scrfunc	rtvspos	randStart	circleproportion	mag	freq	ev	inc	rng	startPos	n_revolutions	totalPoints	totalEarnings	Earnings
6.6.1	mac	0	2023-01-13	15:35:22	1	1	1	instructions	1	instructions1	729	1	75	DEV	POS	1	0.3300000000000000155						75	0	0	0	
6.6.1	mac	0	2023-01-13	15:35:22	1	1	1	instructions	1	instructions2	1156	1	75	DEV	POS	1	0.3300000000000000155						75	0	0	0	
6.6.1	mac	0	2023-01-13	15:35:22	1	1	1	instructions	1	instructions3	265	1	75	DEV	POS	1	0.3300000000000000155						75	0	0	0	
6.6.1	mac	0	2023-01-13	15:35:22	1	1	1	experiment	2	experiment	1171	1	59	DEV	POS	1	0.3300000000000000155						59	4482	0	0	
6.6.1	mac	0	2023-01-13	15:35:22	1	1	1	experiment	2	dispFeedback	1000	1	59	DEV	POS	1	0.3300000000000000155	69	0.798085581238219377	54.6774843130285006509	0	0.9135880460761459654	59	4482	0	0	0
6.6.1	mac	0	2023-01-13	15:35:22	1	1	1	experiment	2	experiment	948	1	46	DEV	POS	1	0.3300000000000000155						46	7457	0	0	0
6.6.1	mac	0	2023-01-13	15:35:22	1	1	1	experiment	2	dispFeedback	1000	1	46	DEV	POS	1	0.3300000000000000155	63	0.2374642209624572842	14.8440792193481847505	0	0.7465611025100948872	46	7457	0	0	0
6.6.1	mac	0	2023-01-13	15:35:22	1	1	1	experiment	2	experiment	1419	1	56	DEV	POS	1	0.3300000000000000155						56	10913	0	0	0
6.6.1	mac	0	2023-01-13	15:35:22	1	1	1	experiment	2	dispFeedback	1000	1	56	DEV	POS	1	0.3300000000000000155	63	0.7725169134347437128	48.2906528606035436724	63	0.6669995630315969093	56	10913	63	7	7
6.6.1	mac	0	2023-01-13	15:35:22	1	1	1	experiment	2	experiment	801	1	20	DEV	POS	1	0.3300000000000000155						20	13744	63	7	7
6.6.1	mac	0	2023-01-13	15:35:22	1	1	1	experiment	2	dispFeedback	1000	1	20	DEV	POS	1	0.3300000000000000155	71	0.3549918031058628687	25.0307572198134984376	71	0.2504349486554122706	20	13744	134	14	7
6.6.1	mac	0	2023-01-13	15:35:22	1	1	1	experiment	2	experiment	2479	1	3	DEV	POS	1	0.3300000000000000155						3	18255	134	14	7
6.6.1	mac	0	2023-01-13	15:35:22	1	1	1	experiment	2	dispFeedback	1000	1	3	DEV	POS	1	0.3300000000000000155	65	0.2898685010687155339	18.6996498699289901424	65	0.0353983172763600723	3	18255	199	21	7
6.6.1	mac	0	2023-01-13	15:35:22	1	1	1	experiment	3	experiment	1177	1	60	DEV	POS	1	0.3300000000000000155						60	21470	199	21	7
6.6.1	mac	0	2023-01-13	15:35:22	1	1	1	experiment	3	dispFeedback	1000	1	60	DEV	POS	1	0.3300000000000000155	66	0.7833984338558708238	51.3210607453699694247	66	0.7051651509723545486	60	21470	265	28	7
6.6.1	mac	0	2023-01-13	15:35:22	1	1	1	experiment	3	experiment	920	1	21	DEV	POS	1	0.3300000000000000155						21	24414	265	28	7
6.6.1	mac	0	2023-01-13	15:35:22	1	1	1	experiment	3	dispFeedback	1000	1	21	DEV	POS	1	0.3300000000000000155	64	0.3410654223276990971	21.6613389670872358295	64	0.2639830730073114418	21	24414	329	35	7
6.6.1	mac	0	2023-01-13	15:35:22	1	1	1	experiment	3	experiment	769	1	97	DEV	POS	1	0.3300000000000000155						97	27213	329	35	7
6.6.1	mac	0	2023-01-13	15:35:22	1	1	1	experiment	3	dispFeedback	1000	1	97	DEV	POS	1	0.3300000000000000155	65	0.4870254068938902892	31.4184002507968820339	0	0.8026928209705960215	97	27213	329	35	0
6.6.1	mac	0	2023-01-13	15:35:22	1	1	1	experiment	3	experiment	3616	1	85	DEV	POS	1	0.3300000000000000155						85	32861	329	35	0
6.6.1	mac	0	2023-01-13	15:35:22	1	1	1	experiment	3	dispFeedback	1000	1	85	DEV	POS	1	0.3300000000000000155	61	0.2708696833849280061	16.3905421448997117295	0	0.4702722598962188472	85	32861	329	35	0
6.6.1	mac	0	2023-01-13	15:35:22	1	1	1	experiment	3	experiment	1148	1	18	DEV	POS	1	0.3300000000000000155						18	36045	329	35	0
6.6.1	mac	0	2023-01-13	15:35:22	1	1	1	experiment	3	dispFeedback	1000	1	18	DEV	POS	1	0.3300000000000000155	66	0.3348397158835397791	21.9356187811617822092	0	0.6269473369761713322	18	36045	329	35	0
6.6.1	mac	0	2023-01-13	15:35:22	1	1	1	endscreen	4	endscreen	3000	1	18	DEV	POS	1	0.3300000000000000155						18	36045	329	35	
