build	computer.platform	computer.touch	date	time	subject	group	sessionid	blockcode	blocknum	trialcode	latency	randStart	startPos	scrfunc	rtvspos	randStart	mag	freq	ev	inc	rng	startPos	fogPos1	fogPos2	chooseUncertainty1	chooseUncertainty2	uncertaintyCount1	uncertaintyCount2	blockCount	ntrials	trialCount	uncertaintyStart1	uncertaintyStart2	uncertainty_block	rt_shifted	totalPoints	totalEarnings	Earnings
6.6.1	mac	0	2023-02-17	15:47:57	Tanya	1	1	instructions	1	instructions1	19987	1	75	IEV	POS	1						75	0	0	0	0	0	0	0	10	0	0	0	0		0	0	
6.6.1	mac	0	2023-02-17	15:47:57	Tanya	1	1	instructions	1	displayGoodJob	4047	1	75	IEV	POS	1						75	0	0	0	0	0	0	0	10	0	0	0	0		0	0	
6.6.1	mac	0	2023-02-17	15:47:57	Tanya	1	1	instructions	1	feedback2_5	3000	1	75	IEV	POS	1						75	0	0	0	0	0	0	0	10	0	0	0	0		0	0	0
6.6.1	mac	0	2023-02-17	15:47:57	Tanya	1	1	instructions	1	instructions3	5851	1	75	IEV	POS	1						75	0	0	0	0	0	0	0	10	0	0	0	0		0	0	0
6.6.1	mac	0	2023-02-17	15:47:57	Tanya	1	1	instructions	1	instructions4	3644	1	75	IEV	POS	1						75	0	0	0	0	0	0	0	10	0	0	0	0		0	0	0
6.6.1	mac	0	2023-02-17	15:47:57	Tanya	1	1	instructions	1	sampleResponse	3000	1	75	IEV	POS	1						75	0	0	0	0	0	0	0	10	0	0	0	0	3644	0	0	0
6.6.1	mac	0	2023-02-17	15:47:57	Tanya	1	1	instructions	1	instructions4	2600	1	75	IEV	POS	1						75	0	0	0	0	0	0	0	10	0	0	0	0	3644	0	0	0
6.6.1	mac	0	2023-02-17	15:47:57	Tanya	1	1	instructions	1	sampleResponse	3000	1	75	IEV	POS	1						75	0	0	0	0	0	0	0	10	0	0	0	0	2600	0	0	0
6.6.1	mac	0	2023-02-17	15:47:57	Tanya	1	1	instructions	1	instructions4	204	1	75	IEV	POS	1						75	0	0	0	0	0	0	0	10	0	0	0	0	2600	0	0	0
6.6.1	mac	0	2023-02-17	15:47:57	Tanya	1	1	instructions	1	sampleResponse	3000	1	75	IEV	POS	1						75	0	0	0	0	0	0	0	10	0	0	0	0	204	0	0	0
6.6.1	mac	0	2023-02-17	15:47:57	Tanya	1	1	instructions	1	instructions4	2803	1	75	IEV	POS	1						75	0	0	0	0	0	0	0	10	0	0	0	0	204	0	0	0
6.6.1	mac	0	2023-02-17	15:47:57	Tanya	1	1	instructions	1	sampleResponse	3000	1	75	IEV	POS	1						75	0	0	0	0	0	0	0	10	0	0	0	0	2803	0	0	0
6.6.1	mac	0	2023-02-17	15:47:57	Tanya	1	1	instructions	1	instructions5	3427	1	75	IEV	POS	1						75	0	0	0	0	0	0	0	10	0	0	0	0	2803	0	0	0
6.6.1	mac	0	2023-02-17	15:47:57	Tanya	1	1	instructions	1	countdown	1000	1	75	IEV	POS	1						75	0	0	0	0	0	0	0	10	0	0	0	0	2803	0	0	0
6.6.1	mac	0	2023-02-17	15:47:57	Tanya	1	1	experiment	2	experiment_noU	1340	1	57	CEVR	POS	1						57	10	5	0	0	0	0	1	34	0	7	24	0	2803	0	0	0
6.6.1	mac	0	2023-02-17	15:47:57	Tanya	1	1	experiment	2	dispFeedback_noU	1000	1	57	CEVR	POS	1	164	0.2209897610921501554	36.3370307167235537804	1	0.9114674855748814419	57	10	5	0	0	0	0	1	34	1	7	24	0	440	1	1	1
6.6.1	mac	0	2023-02-17	15:47:57	Tanya	1	1	experiment	2	experiment_noU	501	1	43	CEVR	POS	1						43	10	5	0	0	0	0	1	34	1	7	24	0	440	1	1	1
6.6.1	mac	0	2023-02-17	15:47:57	Tanya	1	1	experiment	2	dispFeedback_noU	1000	1	43	CEVR	POS	1	66	0.5398082534389329057	35.3805752396832033924	66	0.434639600905273038	43	10	5	0	0	0	0	1	34	2	7	24	0	3901	67	6	5
6.6.1	mac	0	2023-02-17	15:47:57	Tanya	1	1	experiment	2	experiment_noU	1648	1	90	CEVR	POS	1						90	10	5	0	0	0	0	1	34	2	7	24	0	3901	67	6	5
6.6.1	mac	0	2023-02-17	15:47:57	Tanya	1	1	experiment	2	dispFeedback_noU	1000	1	90	CEVR	POS	1	113	0.3318810866222450251	37.6637621732444927147	113	0.2866989940606753939	90	10	5	0	0	0	0	1	34	3	7	24	0	2398	180	14	8
6.6.1	mac	0	2023-02-17	15:47:57	Tanya	1	1	experiment	2	experiment_noU	1948	1	54	CEVR	POS	1						54	10	5	0	0	0	0	1	34	3	7	24	0	2398	180	14	8
6.6.1	mac	0	2023-02-17	15:47:57	Tanya	1	1	experiment	2	dispFeedback_noU	1000	1	54	CEVR	POS	1	158	0.2397260273972602884	37.9589041095890422639	1	0.330270284165225525	54	10	5	0	0	0	0	1	34	4	7	24	0	898	181	15	1
6.6.1	mac	0	2023-02-17	15:47:57	Tanya	1	1	experiment	2	experiment_noU	3692	1	33	CEVR	POS	1						33	10	5	0	0	0	0	1	34	4	7	24	0	898	181	15	1
6.6.1	mac	0	2023-02-17	15:47:57	Tanya	1	1	experiment	2	dispFeedback_noU	1000	1	33	CEVR	POS	1	135	0.2750637213254035762	37.0000000000000071054	1	0.8148974789806868735	33	10	5	0	0	0	0	1	34	5	7	24	0	1592	182	16	1
6.6.1	mac	0	2023-02-17	15:47:57	Tanya	1	1	experiment	2	experiment_noU	535	1	42	CEVR	POS	1						42	10	5	0	0	0	0	1	34	5	7	24	0	1592	182	16	1
6.6.1	mac	0	2023-02-17	15:47:57	Tanya	1	1	experiment	2	dispFeedback_noU	1000	1	42	CEVR	POS	1	69	0.5362318840579710644	37	69	0.4961868714299488281	42	10	5	0	0	0	0	1	34	6	7	24	0	3885	251	21	5
6.6.1	mac	0	2023-02-17	15:47:57	Tanya	1	1	experiment	2	experiment_noU	622	1	20	CEVR	POS	1						20	10	5	0	0	0	0	1	34	6	7	24	0	3885	251	21	5
6.6.1	mac	0	2023-02-17	15:47:57	Tanya	1	1	experiment	2	dispFeedback_noU	1000	1	20	CEVR	POS	1	96	0.3777712952158692739	36.2444574095682625625	1	0.8593759764589778971	20	10	5	0	0	0	0	1	34	7	7	24	1	2872	252	22	1
6.6.1	mac	0	2023-02-17	15:47:57	Tanya	1	1	experiment	2	experiment_U	659	1	10	CEVR	POS	1						10	10	5	0	0	0	0	1	34	7	7	24	1	2872	252	22	1
6.6.1	mac	0	2023-02-17	15:47:57	Tanya	1	1	experiment	2	dispFeedback_U	1000	1	10	CEVR	POS	1	114	0.3328193266512464721	37.9984579799537343092	1	0.6069975410604377952	10	10	5	0	0	1	0	1	34	8	7	24	1	2409	253	23	1
6.6.1	mac	0	2023-02-17	15:47:57	Tanya	1	1	experiment	2	experiment_U	984	1	30	CEVR	POS	1						30	10	5	0	0	1	0	1	34	8	7	24	1	2409	253	23	1
6.6.1	mac	0	2023-02-17	15:47:57	Tanya	1	1	experiment	2	dispFeedback_U	1000	1	30	CEVR	POS	1	72	0.5046765393608729777	36.4953234606391276884	1	0.6432032784547664361	30	10	5	1	0	2	0	1	34	9	7	24	1	3734	254	24	1
6.6.1	mac	0	2023-02-17	15:47:57	Tanya	1	1	experiment	2	experiment_U	445	1	71	CEVR	POS	1						71	10	5	1	0	2	0	1	34	9	7	24	1	3734	254	24	1
6.6.1	mac	0	2023-02-17	15:47:57	Tanya	1	1	experiment	2	dispFeedback_U	1000	1	71	CEVR	POS	1	176	0.2138728323699421729	37.6416184971098246592	1	0.8388346850031136448	71	10	5	2	0	3	0	1	34	10	7	24	1	245	255	25	1
6.6.1	mac	0	2023-02-17	15:47:57	Tanya	1	1	experiment	2	experiment_U	906	1	76	CEVR	POS	1						76	10	5	2	0	3	0	1	34	10	7	24	1	245	255	25	1
6.6.1	mac	0	2023-02-17	15:47:57	Tanya	1	1	experiment	2	dispFeedback_U	1000	1	76	CEVR	POS	1	151	0.242327844311377244	36.515344311377248232	151	0.2197113768709151593	76	10	5	2	0	4	0	1	34	11	7	24	1	956	406	35	10
6.6.1	mac	0	2023-02-17	15:47:57	Tanya	1	1	experiment	2	experiment_U	2643	1	38	CEVR	POS	1						38	10	5	2	0	4	0	1	34	11	7	24	1	956	406	35	10
6.6.1	mac	0	2023-02-17	15:47:57	Tanya	1	1	experiment	2	dispFeedback_U	1000	1	38	CEVR	POS	1	162	0.2351552569457054653	38.1757762847285206931	1	0.3689800848646508924	38	10	5	2	0	5	0	1	34	12	7	24	1	793	407	36	1
6.6.1	mac	0	2023-02-17	15:47:57	Tanya	1	1	experiment	2	experiment_U	535	1	98	CEVR	POS	1						98	10	5	2	0	5	0	1	34	12	7	24	1	793	407	36	1
6.6.1	mac	0	2023-02-17	15:47:57	Tanya	1	1	experiment	2	dispFeedback_U	1000	1	98	CEVR	POS	1	134	0.2806067172264355425	37.5612134344528740826	134	0.1102094801865074469	98	10	5	2	0	6	0	1	34	13	7	24	1	1685	541	45	9
6.6.1	mac	0	2023-02-17	15:47:57	Tanya	1	1	experiment	2	experiment_U	688	1	42	CEVR	POS	1						42	10	5	2	0	6	0	1	34	13	7	24	1	1685	541	45	9
6.6.1	mac	0	2023-02-17	15:47:57	Tanya	1	1	experiment	2	dispFeedback_U	1000	1	42	CEVR	POS	1	70	0.5725022104332448958	39.8625110521662264773	70	0.3575553908845305884	42	10	5	3	0	7	0	1	34	14	7	24	1	4038	611	50	5
6.6.1	mac	0	2023-02-17	15:47:57	Tanya	1	1	experiment	2	experiment_U	1507	1	80	CEVR	POS	1						80	10	5	3	0	7	0	1	34	14	7	24	1	4038	611	50	5
6.6.1	mac	0	2023-02-17	15:47:57	Tanya	1	1	experiment	2	dispFeedback_U	1000	1	80	CEVR	POS	1	133	0.2850539291217257243	37.8551617873651764512	133	0.174778809345974312	80	10	5	3	0	8	0	1	34	15	7	24	1	1757	744	59	9
6.6.1	mac	0	2023-02-17	15:47:57	Tanya	1	1	experiment	2	experiment_U	565	1	27	CEVR	POS	1						27	10	5	3	0	8	0	1	34	15	7	24	1	1757	744	59	9
6.6.1	mac	0	2023-02-17	15:47:57	Tanya	1	1	experiment	2	dispFeedback_U	1000	1	27	CEVR	POS	1	87	0.4130781499202552109	35.7607655502392347557	1	0.8443180699470261841	27	10	5	3	0	9	0	1	34	16	7	24	1	3165	745	60	1
6.6.1	mac	0	2023-02-17	15:47:57	Tanya	1	1	experiment	2	experiment_U	669	1	95	CEVR	POS	1						95	10	5	3	0	9	0	1	34	16	7	24	1	3165	745	60	1
6.6.1	mac	0	2023-02-17	15:47:57	Tanya	1	1	experiment	2	dispFeedback_U	1000	1	95	CEVR	POS	1	128	0.2796372273806952968	35.881451090477220589	128	0.1127603177709412541	95	10	5	3	0	10	0	1	34	17	7	24	1	1669	873	69	9
6.6.1	mac	0	2023-02-17	15:47:57	Tanya	1	1	experiment	2	experiment_U	2144	1	64	CEVR	POS	1						64	10	5	3	0	10	0	1	34	17	7	24	1	1669	873	69	9
6.6.1	mac	0	2023-02-17	15:47:57	Tanya	1	1	experiment	2	dispFeedback_U	1000	1	64	CEVR	POS	1	133	0.2751806204844878811	36.7248193795155088992	133	0.1224260235024676735	64	10	5	3	0	11	0	1	34	18	7	24	1	1594	1006	78	9
6.6.1	mac	0	2023-02-17	15:47:57	Tanya	1	1	experiment	2	experiment_U	1832	1	7	CEVR	POS	1						7	10	5	3	0	11	0	1	34	18	7	24	1	1594	1006	78	9
6.6.1	mac	0	2023-02-17	15:47:57	Tanya	1	1	experiment	2	dispFeedback_U	1000	1	7	CEVR	POS	1	79	0.4515341701534170138	35.6453974895397465161	79	0.4047789101965676428	7	10	5	3	0	12	0	1	34	19	7	24	1	3432	1085	84	6
6.6.1	mac	0	2023-02-17	15:47:57	Tanya	1	1	experiment	2	experiment_U	478	1	99	CEVR	POS	1						99	10	5	3	0	12	0	1	34	19	7	24	1	3432	1085	84	6
6.6.1	mac	0	2023-02-17	15:47:57	Tanya	1	1	experiment	2	dispFeedback_U	1000	1	99	CEVR	POS	1	134	0.2801817395067070504	37.5603634790134179866	1	0.5342091204445365005	99	10	5	3	0	13	0	1	34	20	7	24	1	1678	1086	85	1
6.6.1	mac	0	2023-02-17	15:47:57	Tanya	1	1	experiment	2	experiment_U	458	1	2	CEVR	POS	1						2	10	5	3	0	13	0	1	34	20	7	24	1	1678	1086	85	1
6.6.1	mac	0	2023-02-17	15:47:57	Tanya	1	1	experiment	2	dispFeedback_U	1000	1	2	CEVR	POS	1	132	0.2882902938557435624	38.1531611754229729172	132	0.0471623169833706515	2	10	5	3	0	14	0	1	34	21	7	24	1	1808	1218	94	9
6.6.1	mac	0	2023-02-17	15:47:57	Tanya	1	1	experiment	2	experiment_U	502	1	15	CEVR	POS	1						15	10	5	3	0	14	0	1	34	21	7	24	1	1808	1218	94	9
6.6.1	mac	0	2023-02-17	15:47:57	Tanya	1	1	experiment	2	dispFeedback_U	1000	1	15	CEVR	POS	1	105	0.3409689310163244169	35.6361242759347049969	1	0.713166763240743129	15	10	5	3	0	15	0	1	34	22	7	24	1	2502	1219	95	1
6.6.1	mac	0	2023-02-17	15:47:57	Tanya	1	1	experiment	2	experiment_U	1617	1	76	CEVR	POS	1						76	10	5	3	0	15	0	1	34	22	7	24	1	2502	1219	95	1
6.6.1	mac	0	2023-02-17	15:47:57	Tanya	1	1	experiment	2	dispFeedback_U	1000	1	76	CEVR	POS	1	131	0.2795165119792790698	36.7204834880207258152	1	0.893814229148862438	76	10	5	3	0	16	0	1	34	23	7	24	1	1667	1220	96	1
6.6.1	mac	0	2023-02-17	15:47:57	Tanya	1	1	experiment	2	experiment_U	255	1	14	CEVR	POS	1						14	10	5	3	0	16	0	1	34	23	7	24	1	1667	1220	96	1
6.6.1	mac	0	2023-02-17	15:47:57	Tanya	1	1	experiment	2	dispFeedback_U	1000	1	14	CEVR	POS	1	118	0.316239316239316226	37.3162393162393115631	1	0.8002214536071339257	14	10	5	3	0	17	0	1	34	24	7	24	2	2205	1221	97	1
6.6.1	mac	0	2023-02-17	15:47:57	Tanya	1	1	experiment	2	experiment_U	948	1	28	CEVR	POS	1						28	10	5	3	0	17	0	1	34	24	7	24	2	2205	1221	97	1
6.6.1	mac	0	2023-02-17	15:47:57	Tanya	1	1	experiment	2	dispFeedback_U	1000	1	28	CEVR	POS	1	80	0.4792746113989637124	38.4378238341968909708	80	0.1867404643415334908	28	10	5	3	1	17	1	1	34	25	7	24	2	3598	1301	103	6
6.6.1	mac	0	2023-02-17	15:47:57	Tanya	1	1	experiment	2	experiment_U	957	1	86	CEVR	POS	1						86	10	5	3	1	17	1	1	34	25	7	24	2	3598	1301	103	6
6.6.1	mac	0	2023-02-17	15:47:57	Tanya	1	1	experiment	2	dispFeedback_U	1000	1	86	CEVR	POS	1	137	0.2701856874608804526	37	1	0.6538741883481560269	86	10	5	3	2	17	2	1	34	26	7	24	2	1507	1302	104	1
6.6.1	mac	0	2023-02-17	15:47:57	Tanya	1	1	experiment	2	experiment_U	692	1	94	CEVR	POS	1						94	10	5	3	2	17	2	1	34	26	7	24	2	1507	1302	104	1
6.6.1	mac	0	2023-02-17	15:47:57	Tanya	1	1	experiment	2	dispFeedback_U	1000	1	94	CEVR	POS	1	129	0.2780163160154572877	35.8879347359381739579	129	0.1107915160504149982	94	10	5	3	3	17	3	1	34	27	7	24	2	1642	1431	113	9
6.6.1	mac	0	2023-02-17	15:47:57	Tanya	1	1	experiment	2	experiment_U	312	1	51	CEVR	POS	1						51	10	5	3	3	17	3	1	34	27	7	24	2	1642	1431	113	9
6.6.1	mac	0	2023-02-17	15:47:57	Tanya	1	1	experiment	2	dispFeedback_U	1000	1	51	CEVR	POS	1	66	0.591864716636197441	38.7755941499085921009	1	0.9189613745359148655	51	10	5	3	4	17	4	1	34	28	7	24	0	4112	1432	114	1
6.6.1	mac	0	2023-02-17	15:47:57	Tanya	1	1	experiment	2	experiment_noU	603	1	56	CEVR	POS	1						56	10	5	3	4	17	4	1	34	28	7	24	0	4112	1432	114	1
6.6.1	mac	0	2023-02-17	15:47:57	Tanya	1	1	experiment	2	dispFeedback_noU	1000	1	56	CEVR	POS	1	44	0.7862780813600486196	34.6411657559198644663	44	0.4319499392136814664	56	10	5	3	4	17	4	1	34	29	7	24	0	4653	1476	117	3
6.6.1	mac	0	2023-02-17	15:47:57	Tanya	1	1	experiment	2	experiment_noU	625	1	39	CEVR	POS	1						39	10	5	3	4	17	4	1	34	29	7	24	0	4653	1476	117	3
6.6.1	mac	0	2023-02-17	15:47:57	Tanya	1	1	experiment	2	dispFeedback_noU	1000	1	39	CEVR	POS	1	72	0.5232323232323232709	37.5232323232323210505	72	0.4112715838503259169	39	10	5	3	4	17	4	1	34	30	7	24	0	3825	1548	122	5
6.6.1	mac	0	2023-02-17	15:47:57	Tanya	1	1	experiment	2	experiment_noU	407	1	74	CEVR	POS	1						74	10	5	3	4	17	4	1	34	30	7	24	0	3825	1548	122	5
6.6.1	mac	0	2023-02-17	15:47:57	Tanya	1	1	experiment	2	dispFeedback_noU	1000	1	74	CEVR	POS	1	165	0.2179034157832744345	35.9104829210836200559	1	0.3659000586173264402	74	10	5	3	4	17	4	1	34	31	7	24	0	357	1549	123	1
6.6.1	mac	0	2023-02-17	15:47:57	Tanya	1	1	experiment	2	experiment_noU	404	1	7	CEVR	POS	1						7	10	5	3	4	17	4	1	34	31	7	24	0	357	1549	123	1
6.6.1	mac	0	2023-02-17	15:47:57	Tanya	1	1	experiment	2	dispFeedback_noU	1000	1	7	CEVR	POS	1	127	0.301443202979515823	38.2057728119180595172	127	0.0640029607024050623	7	10	5	3	4	17	4	1	34	32	7	24	0	2004	1676	132	9
6.6.1	mac	0	2023-02-17	15:47:57	Tanya	1	1	experiment	2	experiment_noU	307	1	11	CEVR	POS	1						11	10	5	3	4	17	4	1	34	32	7	24	0	2004	1676	132	9
6.6.1	mac	0	2023-02-17	15:47:57	Tanya	1	1	experiment	2	dispFeedback_noU	1000	1	11	CEVR	POS	1	117	0.3088480801335559134	36.0734557595993265977	1	0.9687386569494238486	11	10	5	3	4	17	4	1	34	33	7	24	0	2107	1677	133	1
6.6.1	mac	0	2023-02-17	15:47:57	Tanya	1	1	experiment	2	experiment_noU	3829	1	35	CEVR	POS	1						35	10	5	3	4	17	4	1	34	33	7	24	0	2107	1677	133	1
6.6.1	mac	0	2023-02-17	15:47:57	Tanya	1	1	experiment	2	dispFeedback_noU	1000	1	35	CEVR	POS	1	124	0.2896443748602102186	35.8414225005591617901	1	0.9965517965603042372	35	10	5	3	4	17	4	1	34	34	7	24	0	1829	1678	134	1
6.6.1	mac	0	2023-02-17	15:47:57	Tanya	1	1	experiment	3	experiment_noU	505	1	51	DEV	POS	1						51	50	50	0	0	0	0	2	36	0	11	25	0	1829	1678	134	1
6.6.1	mac	0	2023-02-17	15:47:57	Tanya	1	1	experiment	3	dispFeedback_noU	1000	1	51	DEV	POS	1	81	0.2548659099576721654	20.6905056759441485781	1	0.5961613956829908689	51	50	50	0	0	0	0	2	36	1	11	25	0	4305	1679	135	1
6.6.1	mac	0	2023-02-17	15:47:57	Tanya	1	1	experiment	3	experiment_noU	436	1	86	DEV	POS	1						86	50	50	0	0	0	0	2	36	1	11	25	0	4305	1679	135	1
6.6.1	mac	0	2023-02-17	15:47:57	Tanya	1	1	experiment	3	dispFeedback_noU	1000	1	86	DEV	POS	1	76	0.6489445188320335234	49.5152074828248416338	76	0.1226591279550127561	86	50	50	0	0	0	0	2	36	2	11	25	0	986	1755	141	6
6.6.1	mac	0	2023-02-17	15:47:57	Tanya	1	1	experiment	3	experiment_noU	496	1	13	DEV	POS	1						13	50	50	0	0	0	0	2	36	2	11	25	0	986	1755	141	6
6.6.1	mac	0	2023-02-17	15:47:57	Tanya	1	1	experiment	3	dispFeedback_noU	1000	1	13	DEV	POS	1	83	0.4185832873765016338	34.9009145823028603672	1	0.872013489453125179	13	50	50	0	0	0	0	2	36	3	11	25	0	2396	1756	142	1
6.6.1	mac	0	2023-02-17	15:47:57	Tanya	1	1	experiment	3	experiment_noU	620	1	19	DEV	POS	1						19	50	50	0	0	0	0	2	36	3	11	25	0	2396	1756	142	1
6.6.1	mac	0	2023-02-17	15:47:57	Tanya	1	1	experiment	3	dispFeedback_noU	1000	1	19	DEV	POS	1	81	0.3753608720608150318	30.2774197280988026648	1	0.384521646048995136	19	50	50	0	0	0	0	2	36	4	11	25	0	2820	1757	143	1
6.6.1	mac	0	2023-02-17	15:47:57	Tanya	1	1	experiment	3	experiment_noU	961	1	69	DEV	POS	1						69	50	50	0	0	0	0	2	36	4	11	25	0	2820	1757	143	1
6.6.1	mac	0	2023-02-17	15:47:57	Tanya	1	1	experiment	3	dispFeedback_noU	1000	1	69	DEV	POS	1	76	0.7243131527679537163	55.1635086557240796878	76	0.4544883096717503568	69	50	50	0	0	0	0	2	36	5	11	25	0	661	1833	149	6
6.6.1	mac	0	2023-02-17	15:47:57	Tanya	1	1	experiment	3	experiment_noU	521	1	50	DEV	POS	1						50	50	50	0	0	0	0	2	36	5	11	25	0	661	1833	149	6
6.6.1	mac	0	2023-02-17	15:47:57	Tanya	1	1	experiment	3	dispFeedback_noU	1000	1	50	DEV	POS	1	87	0.2578138148836470744	22.4591315836128160299	1	0.3645650861702312562	50	50	50	0	0	0	0	2	36	6	11	25	0	4271	1834	150	1
6.6.1	mac	0	2023-02-17	15:47:57	Tanya	1	1	experiment	3	experiment_noU	499	1	77	DEV	POS	1						77	50	50	0	0	0	0	2	36	6	11	25	0	4271	1834	150	1
6.6.1	mac	0	2023-02-17	15:47:57	Tanya	1	1	experiment	3	dispFeedback_noU	1000	1	77	DEV	POS	1	68	0.7395947442649337678	50.0657569441931755705	68	0.4583852843983064473	77	50	50	0	0	0	0	2	36	7	11	25	0	599	1902	155	5
6.6.1	mac	0	2023-02-17	15:47:57	Tanya	1	1	experiment	3	experiment_noU	510	1	37	DEV	POS	1						37	50	50	0	0	0	0	2	36	7	11	25	0	599	1902	155	5
6.6.1	mac	0	2023-02-17	15:47:57	Tanya	1	1	experiment	3	dispFeedback_noU	1000	1	37	DEV	POS	1	85	0.3106476361315302359	26.3077951845253359409	1	0.7388721030994486183	37	50	50	0	0	0	0	2	36	8	11	25	0	3610	1903	156	1
6.6.1	mac	0	2023-02-17	15:47:57	Tanya	1	1	experiment	3	experiment_noU	567	1	20	DEV	POS	1						20	50	50	0	0	0	0	2	36	8	11	25	0	3610	1903	156	1
6.6.1	mac	0	2023-02-17	15:47:57	Tanya	1	1	experiment	3	dispFeedback_noU	1000	1	20	DEV	POS	1	78	0.3756378485828478775	29.16964488366015118	1	0.5325864759582529251	20	50	50	0	0	0	0	2	36	9	11	25	0	2817	1904	157	1
6.6.1	mac	0	2023-02-17	15:47:57	Tanya	1	1	experiment	3	experiment_noU	510	1	60	DEV	POS	1						60	50	50	0	0	0	0	2	36	9	11	25	0	2817	1904	157	1
6.6.1	mac	0	2023-02-17	15:47:57	Tanya	1	1	experiment	3	dispFeedback_noU	1000	1	60	DEV	POS	1	84	0.2117375925983583373	17.796976748127118384	1	0.2948862442967682962	60	50	50	0	0	0	0	2	36	10	11	25	0	4760	1905	158	1
6.6.1	mac	0	2023-02-17	15:47:57	Tanya	1	1	experiment	3	experiment_noU	984	1	18	DEV	POS	1						18	50	50	0	0	0	0	2	36	10	11	25	0	4760	1905	158	1
6.6.1	mac	0	2023-02-17	15:47:57	Tanya	1	1	experiment	3	dispFeedback_noU	1000	1	18	DEV	POS	1	82	0.3480676939296521999	28.3733086357893817819	1	0.4443962898674412298	18	50	50	0	0	0	0	2	36	11	11	25	1	3134	1906	159	1
6.6.1	mac	0	2023-02-17	15:47:57	Tanya	1	1	experiment	3	experiment_U	541	1	69	DEV	POS	1						69	50	50	0	0	0	0	2	36	11	11	25	1	3134	1906	159	1
6.6.1	mac	0	2023-02-17	15:47:57	Tanya	1	1	experiment	3	dispFeedback_U	1000	1	69	DEV	POS	1	65	0.8329292698592934974	54.5314056906516029244	65	0.7871938833937034419	69	50	50	1	0	1	0	2	36	12	11	25	1	241	1971	164	5
6.6.1	mac	0	2023-02-17	15:47:57	Tanya	1	1	experiment	3	experiment_U	1478	1	20	DEV	POS	1						20	50	50	1	0	1	0	2	36	12	11	25	1	241	1971	164	5
6.6.1	mac	0	2023-02-17	15:47:57	Tanya	1	1	experiment	3	dispFeedback_U	1000	1	20	DEV	POS	1	82	0.3015841535819115404	24.7169424087776050669	1	0.5471327771775268412	20	50	50	1	0	2	0	2	36	13	11	25	1	3728	1972	165	1
6.6.1	mac	0	2023-02-17	15:47:57	Tanya	1	1	experiment	3	experiment_U	841	1	47	DEV	POS	1						47	50	50	1	0	2	0	2	36	13	11	25	1	3728	1972	165	1
6.6.1	mac	0	2023-02-17	15:47:57	Tanya	1	1	experiment	3	dispFeedback_U	1000	1	47	DEV	POS	1	82	0.242728764814404474	20.0129936787982565249	1	0.5983488735739023179	47	50	50	1	0	3	0	2	36	14	11	25	1	4441	1973	166	1
6.6.1	mac	0	2023-02-17	15:47:57	Tanya	1	1	experiment	3	experiment_U	1540	1	50	DEV	POS	1						50	50	50	1	0	3	0	2	36	14	11	25	1	4441	1973	166	1
6.6.1	mac	0	2023-02-17	15:47:57	Tanya	1	1	experiment	3	dispFeedback_U	1000	1	50	DEV	POS	1	66	0.819676905735746586	54.0798637274112010687	66	0.545860772846699871	50	50	50	2	0	4	0	2	36	15	11	25	1	290	2039	171	5
6.6.1	mac	0	2023-02-17	15:47:57	Tanya	1	1	experiment	3	experiment_U	565	1	97	DEV	POS	1						97	50	50	2	0	4	0	2	36	15	11	25	1	290	2039	171	5
6.6.1	mac	0	2023-02-17	15:47:57	Tanya	1	1	experiment	3	dispFeedback_U	1000	1	97	DEV	POS	1	75	0.5188714762241877221	38.7520889908099661625	75	0.2989499360087676805	97	50	50	2	0	5	0	2	36	16	11	25	1	1665	2114	177	6
6.6.1	mac	0	2023-02-17	15:47:57	Tanya	1	1	experiment	3	experiment_U	2333	1	35	DEV	POS	1						35	50	50	2	0	5	0	2	36	16	11	25	1	1665	2114	177	6
6.6.1	mac	0	2023-02-17	15:47:57	Tanya	1	1	experiment	3	dispFeedback_U	1000	1	35	DEV	POS	1	73	0.8081647637195298328	59.3210915740485589254	73	0.3666722549513616314	35	50	50	3	0	6	0	2	36	17	11	25	1	333	2187	182	5
6.6.1	mac	0	2023-02-17	15:47:57	Tanya	1	1	experiment	3	experiment_U	1597	1	49	DEV	POS	1						49	50	50	3	0	6	0	2	36	17	11	25	1	333	2187	182	5
6.6.1	mac	0	2023-02-17	15:47:57	Tanya	1	1	experiment	3	dispFeedback_U	1000	1	49	DEV	POS	1	66	0.8177952472167667741	54.013337887260718162	66	0.4144456969607727692	49	50	50	4	0	7	0	2	36	18	11	25	0	297	2253	187	5
6.6.1	mac	0	2023-02-17	15:47:57	Tanya	1	1	experiment	3	experiment_noU	747	1	42	DEV	POS	1						42	50	50	4	0	7	0	2	36	18	11	25	0	297	2253	187	5
6.6.1	mac	0	2023-02-17	15:47:57	Tanya	1	1	experiment	3	dispFeedback_noU	1000	1	42	DEV	POS	1	90	0.2724310553506416044	24.452719557485085744	1	0.5804377979553392297	42	50	50	4	0	7	0	2	36	19	11	25	0	4097	2254	188	1
6.6.1	mac	0	2023-02-17	15:47:57	Tanya	1	1	experiment	3	experiment_noU	651	1	11	DEV	POS	1						11	50	50	4	0	7	0	2	36	19	11	25	0	4097	2254	188	1
6.6.1	mac	0	2023-02-17	15:47:57	Tanya	1	1	experiment	3	dispFeedback_noU	1000	1	11	DEV	POS	1	81	0.41245800160095758	33.2254517891539506991	81	0.0923969540960148383	11	50	50	4	0	7	0	2	36	20	11	25	0	2451	2335	194	6
6.6.1	mac	0	2023-02-17	15:47:57	Tanya	1	1	experiment	3	experiment_noU	719	1	72	DEV	POS	1						72	50	50	4	0	7	0	2	36	20	11	25	0	2451	2335	194	6
6.6.1	mac	0	2023-02-17	15:47:57	Tanya	1	1	experiment	3	dispFeedback_noU	1000	1	72	DEV	POS	1	70	0.7470878794180195737	52.6396959439704517081	70	0.6608960043315067479	72	50	50	4	0	7	0	2	36	21	11	25	0	569	2405	199	5
6.6.1	mac	0	2023-02-17	15:47:57	Tanya	1	1	experiment	3	experiment_noU	625	1	88	DEV	POS	1						88	50	50	4	0	7	0	2	36	21	11	25	0	569	2405	199	5
6.6.1	mac	0	2023-02-17	15:47:57	Tanya	1	1	experiment	3	dispFeedback_noU	1000	1	88	DEV	POS	1	75	0.5889791197764276953	44.1046628807788110294	1	0.6268337265650820722	88	50	50	4	0	7	0	2	36	22	11	25	0	1275	2406	200	1
6.6.1	mac	0	2023-02-17	15:47:57	Tanya	1	1	experiment	3	experiment_noU	1191	1	69	DEV	POS	1						69	50	50	4	0	7	0	2	36	22	11	25	0	1275	2406	200	1
6.6.1	mac	0	2023-02-17	15:47:57	Tanya	1	1	experiment	3	dispFeedback_noU	1000	1	69	DEV	POS	1	77	0.6701280240611919847	51.4130129469424872468	1	0.9843282464389522257	69	50	50	4	0	7	0	2	36	23	11	25	0	891	2407	201	1
6.6.1	mac	0	2023-02-17	15:47:57	Tanya	1	1	experiment	3	experiment_noU	1749	1	82	DEV	POS	1						82	50	50	4	0	7	0	2	36	23	11	25	0	891	2407	201	1
6.6.1	mac	0	2023-02-17	15:47:57	Tanya	1	1	experiment	3	dispFeedback_noU	1000	1	82	DEV	POS	1	77	0.4548442634519547223	35.1913802133354849389	1	0.6271787657465736077	82	50	50	4	0	7	0	2	36	24	11	25	0	2099	2408	202	1
6.6.1	mac	0	2023-02-17	15:47:57	Tanya	1	1	experiment	3	experiment_noU	3502	1	69	DEV	POS	1						69	50	50	4	0	7	0	2	36	24	11	25	0	2099	2408	202	1
6.6.1	mac	0	2023-02-17	15:47:57	Tanya	1	1	experiment	3	dispFeedback_noU	1000	1	69	DEV	POS	1	84	0.3425180567615211391	28.6661736995762765901	1	0.960548439053946268	69	50	50	4	0	7	0	2	36	25	11	25	2	3202	2409	203	1
6.6.1	mac	0	2023-02-17	15:47:57	Tanya	1	1	experiment	3	experiment_U	865	1	34	DEV	POS	1						34	50	50	4	0	7	0	2	36	25	11	25	2	3202	2409	203	1
6.6.1	mac	0	2023-02-17	15:47:57	Tanya	1	1	experiment	3	dispFeedback_U	1000	1	34	DEV	POS	1	81	0.294858878674528424	23.9282711522471487342	1	0.6045266808021176885	34	50	50	4	0	7	1	2	36	26	11	25	2	3815	2410	204	1
6.6.1	mac	0	2023-02-17	15:47:57	Tanya	1	1	experiment	3	experiment_U	941	1	45	DEV	POS	1						45	50	50	4	0	7	1	2	36	26	11	25	2	3815	2410	204	1
6.6.1	mac	0	2023-02-17	15:47:57	Tanya	1	1	experiment	3	dispFeedback_U	1000	1	45	DEV	POS	1	89	0.242728764814404474	21.7120950324990857894	1	0.4337869748551833604	45	50	50	4	0	7	2	2	36	27	11	25	2	4441	2411	205	1
6.6.1	mac	0	2023-02-17	15:47:57	Tanya	1	1	experiment	3	experiment_U	1445	1	51	DEV	POS	1						51	50	50	4	0	7	2	2	36	27	11	25	2	4441	2411	205	1
6.6.1	mac	0	2023-02-17	15:47:57	Tanya	1	1	experiment	3	dispFeedback_U	1000	1	51	DEV	POS	1	67	0.8318422180168822955	55.3273642252685178278	67	0.6087295901050626679	51	50	50	4	1	7	3	2	36	28	11	25	2	245	2478	210	5
6.6.1	mac	0	2023-02-17	15:47:57	Tanya	1	1	experiment	3	experiment_U	1050	1	28	DEV	POS	1						28	50	50	4	1	7	3	2	36	28	11	25	2	245	2478	210	5
6.6.1	mac	0	2023-02-17	15:47:57	Tanya	1	1	experiment	3	dispFeedback_U	1000	1	28	DEV	POS	1	81	0.3037386274537260955	24.5705104867767651911	81	0.1719515223922095104	28	50	50	4	1	7	4	2	36	29	11	25	2	3700	2559	216	6
6.6.1	mac	0	2023-02-17	15:47:57	Tanya	1	1	experiment	3	experiment_U	782	1	9	DEV	POS	1						9	50	50	4	1	7	4	2	36	29	11	25	2	3700	2559	216	6
6.6.1	mac	0	2023-02-17	15:47:57	Tanya	1	1	experiment	3	dispFeedback_U	1000	1	9	DEV	POS	1	85	0.4090801492045242904	34.6297195471175314196	85	0.2071071765867777137	9	50	50	4	1	7	5	2	36	30	11	25	2	2482	2644	222	6
6.6.1	mac	0	2023-02-17	15:47:57	Tanya	1	1	experiment	3	experiment_U	1709	1	21	DEV	POS	1						21	50	50	4	1	7	5	2	36	30	11	25	2	2482	2644	222	6
6.6.1	mac	0	2023-02-17	15:47:57	Tanya	1	1	experiment	3	dispFeedback_U	1000	1	21	DEV	POS	1	85	0.2795673756961861711	23.6436583445941579384	1	0.9161671991264837001	21	50	50	4	1	7	6	2	36	31	11	25	2	4009	2645	223	1
6.6.1	mac	0	2023-02-17	15:47:57	Tanya	1	1	experiment	3	experiment_U	968	1	48	DEV	POS	1						48	50	50	4	1	7	6	2	36	31	11	25	2	4009	2645	223	1
6.6.1	mac	0	2023-02-17	15:47:57	Tanya	1	1	experiment	3	dispFeedback_U	1000	1	48	DEV	POS	1	84	0.2260055463951578525	18.936671536548029593	1	0.7915577357149584659	48	50	50	4	1	7	7	2	36	32	11	25	2	4618	2646	224	1
6.6.1	mac	0	2023-02-17	15:47:57	Tanya	1	1	experiment	3	experiment_U	3071	1	18	DEV	POS	1						18	50	50	4	1	7	7	2	36	32	11	25	2	4618	2646	224	1
6.6.1	mac	0	2023-02-17	15:47:57	Tanya	1	1	experiment	3	dispFeedback_U	1000	1	18	DEV	POS	1	65	0.8383782097576952808	54.7080350304110893944	65	0.4768724344849755159	18	50	50	4	2	7	8	2	36	33	11	25	2	221	2711	229	5
6.6.1	mac	0	2023-02-17	15:47:57	Tanya	1	1	experiment	3	experiment_U	1634	1	48	DEV	POS	1						48	50	50	4	2	7	8	2	36	33	11	25	2	221	2711	229	5
6.6.1	mac	0	2023-02-17	15:47:57	Tanya	1	1	experiment	3	dispFeedback_U	1000	1	48	DEV	POS	1	65	0.8212920766527330718	53.3152091384270647723	65	0.1892116768726175013	48	50	50	4	3	7	9	2	36	34	11	25	2	284	2776	234	5
6.6.1	mac	0	2023-02-17	15:47:57	Tanya	1	1	experiment	3	experiment_U	479	1	5	DEV	POS	1						5	50	50	4	3	7	9	2	36	34	11	25	2	284	2776	234	5
6.6.1	mac	0	2023-02-17	15:47:57	Tanya	1	1	experiment	3	dispFeedback_U	1000	1	5	DEV	POS	1	78	0.4711592993691376963	36.7183811921899376784	1	0.7401284747151957166	5	50	50	4	3	7	10	2	36	35	11	25	2	1979	2777	235	1
6.6.1	mac	0	2023-02-17	15:47:57	Tanya	1	1	experiment	3	experiment_U	571	1	97	DEV	POS	1						97	50	50	4	3	7	10	2	36	35	11	25	2	1979	2777	235	1
6.6.1	mac	0	2023-02-17	15:47:57	Tanya	1	1	experiment	3	dispFeedback_U	1000	1	97	DEV	POS	1	80	0.5178886268581741614	41.2812498779680083771	1	0.6124391096207404406	97	50	50	4	3	7	11	2	36	36	11	25	2	1671	2778	236	1
6.6.1	mac	0	2023-02-17	15:47:57	Tanya	1	1	experiment	4	experiment_noU	883	1	45	DEV	POS	1						45	15	30	0	0	0	0	3	42	0	8	29	2	1671	2778	236	1
6.6.1	mac	0	2023-02-17	15:47:57	Tanya	1	1	experiment	4	dispFeedback_noU	1000	1	45	DEV	POS	1	89	0.247975267665942356	22.1532596533959349472	1	0.3467678726526833843	45	15	30	0	0	0	0	3	42	1	8	29	0	4383	2779	237	1
6.6.1	mac	0	2023-02-17	15:47:57	Tanya	1	1	experiment	4	experiment_noU	1293	1	60	DEV	POS	1						60	15	30	0	0	0	0	3	42	1	8	29	0	4383	2779	237	1
6.6.1	mac	0	2023-02-17	15:47:57	Tanya	1	1	experiment	4	dispFeedback_noU	1000	1	60	DEV	POS	1	75	0.7536331518497870752	56.7130281481712685832	75	0.0146083908655234591	60	15	30	0	0	0	0	3	42	2	8	29	0	543	2854	243	6
6.6.1	mac	0	2023-02-17	15:47:57	Tanya	1	1	experiment	4	experiment_noU	985	1	24	DEV	POS	1						24	15	30	0	0	0	0	3	42	2	8	29	0	543	2854	243	6
6.6.1	mac	0	2023-02-17	15:47:57	Tanya	1	1	experiment	4	dispFeedback_noU	1000	1	24	DEV	POS	1	86	0.324119366087374905	27.9625640501121104364	86	0.2209593302619083099	24	15	30	0	0	0	0	3	42	3	8	29	0	3435	2940	249	6
6.6.1	mac	0	2023-02-17	15:47:57	Tanya	1	1	experiment	4	experiment_noU	927	1	26	DEV	POS	1						26	15	30	0	0	0	0	3	42	3	8	29	0	3435	2940	249	6
6.6.1	mac	0	2023-02-17	15:47:57	Tanya	1	1	experiment	4	dispFeedback_noU	1000	1	26	DEV	POS	1	86	0.3208716069326308928	27.7147991352746139171	1	0.9167913296066204643	26	15	30	0	0	0	0	3	42	4	8	29	0	3477	2941	250	1
6.6.1	mac	0	2023-02-17	15:47:57	Tanya	1	1	experiment	4	experiment_noU	1561	1	35	DEV	POS	1						35	15	30	0	0	0	0	3	42	4	8	29	0	3477	2941	250	1
6.6.1	mac	0	2023-02-17	15:47:57	Tanya	1	1	experiment	4	dispFeedback_noU	1000	1	35	DEV	POS	1	87	0.2315138511920009079	20.0677975019120076183	1	0.9313486630402851851	35	15	30	0	0	0	0	3	42	5	8	29	0	4561	2942	251	1
6.6.1	mac	0	2023-02-17	15:47:57	Tanya	1	1	experiment	4	experiment_noU	521	1	1	DEV	POS	1						1	15	30	0	0	0	0	3	42	5	8	29	0	4561	2942	251	1
6.6.1	mac	0	2023-02-17	15:47:57	Tanya	1	1	experiment	4	dispFeedback_noU	1000	1	1	DEV	POS	1	76	0.4942310717937410391	37.7217463291434640382	76	0.4731372488832886192	1	15	30	0	0	0	0	3	42	6	8	29	0	1821	3018	257	6
6.6.1	mac	0	2023-02-17	15:47:57	Tanya	1	1	experiment	4	experiment_noU	610	1	37	DEV	POS	1						37	15	30	0	0	0	0	3	42	6	8	29	0	1821	3018	257	6
6.6.1	mac	0	2023-02-17	15:47:57	Tanya	1	1	experiment	4	dispFeedback_noU	1000	1	37	DEV	POS	1	82	0.3029695854576981429	24.8181473576139417503	1	0.746316186791825098	37	15	30	0	0	0	0	3	42	7	8	29	0	3710	3019	258	1
6.6.1	mac	0	2023-02-17	15:47:57	Tanya	1	1	experiment	4	experiment_noU	585	1	95	DEV	POS	1						95	15	30	0	0	0	0	3	42	7	8	29	0	3710	3019	258	1
6.6.1	mac	0	2023-02-17	15:47:57	Tanya	1	1	experiment	4	dispFeedback_noU	1000	1	95	DEV	POS	1	79	0.5322493309194293865	42.2293075513008133726	1	0.7859500669375877324	95	15	30	0	0	0	0	3	42	8	8	29	1	1585	3020	259	1
6.6.1	mac	0	2023-02-17	15:47:57	Tanya	1	1	experiment	4	experiment_U	2511	1	93	DEV	POS	1						93	15	30	0	0	0	0	3	42	8	8	29	1	1585	3020	259	1
6.6.1	mac	0	2023-02-17	15:47:57	Tanya	1	1	experiment	4	dispFeedback_U	1000	1	93	DEV	POS	1	84	0.325981922541265734	27.4523119942748721201	1	0.8859172302498289353	93	15	30	1	0	1	0	3	42	9	8	29	1	3411	3021	260	1
6.6.1	mac	0	2023-02-17	15:47:57	Tanya	1	1	experiment	4	experiment_U	1897	1	3	DEV	POS	1						3	15	30	1	0	1	0	3	42	9	8	29	1	3411	3021	260	1
6.6.1	mac	0	2023-02-17	15:47:57	Tanya	1	1	experiment	4	dispFeedback_U	1000	1	3	DEV	POS	1	87	0.3349188835487599825	29.1155011557474736605	1	0.9481959785214150171	3	15	30	2	0	2	0	3	42	10	8	29	1	3297	3022	261	1
6.6.1	mac	0	2023-02-17	15:47:57	Tanya	1	1	experiment	4	experiment_U	4539	1	69	DEV	POS	1						69	15	30	2	0	2	0	3	42	10	8	29	1	3297	3022	261	1
6.6.1	mac	0	2023-02-17	15:47:57	Tanya	1	1	experiment	4	dispFeedback_U	1000	1	69	DEV	POS	1	81	0.2605591424692252356	21.1181052569371559002	1	0.4502278832835676092	69	15	30	2	0	3	0	3	42	11	8	29	1	4239	3023	262	1
6.6.1	mac	0	2023-02-17	15:47:57	Tanya	1	1	experiment	4	experiment_U	3298	1	39	DEV	POS	1						39	15	30	2	0	3	0	3	42	11	8	29	1	4239	3023	262	1
6.6.1	mac	0	2023-02-17	15:47:57	Tanya	1	1	experiment	4	dispFeedback_U	1000	1	39	DEV	POS	1	78	0.5473803704946919035	42.6699591813479059965	78	0.116499641937320042	39	15	30	2	0	4	0	3	42	12	8	29	1	1498	3101	268	6
6.6.1	mac	0	2023-02-17	15:47:57	Tanya	1	1	experiment	4	experiment_U	604	1	93	DEV	POS	1						93	15	30	2	0	4	0	3	42	12	8	29	1	1498	3101	268	6
6.6.1	mac	0	2023-02-17	15:47:57	Tanya	1	1	experiment	4	dispFeedback_U	1000	1	93	DEV	POS	1	78	0.5463172068395488745	42.6019751515676361464	78	0.4871948376500966904	93	15	30	2	0	5	0	3	42	13	8	29	1	1504	3179	274	6
6.6.1	mac	0	2023-02-17	15:47:57	Tanya	1	1	experiment	4	experiment_U	2690	1	88	DEV	POS	1						88	15	30	2	0	5	0	3	42	13	8	29	1	1504	3179	274	6
6.6.1	mac	0	2023-02-17	15:47:57	Tanya	1	1	experiment	4	dispFeedback_U	1000	1	88	DEV	POS	1	81	0.3315280958967573577	26.8670367951815300955	81	0.2119891094537426635	88	15	30	3	0	6	0	3	42	14	8	29	1	3340	3260	280	6
6.6.1	mac	0	2023-02-17	15:47:57	Tanya	1	1	experiment	4	experiment_U	1476	1	13	DEV	POS	1						13	15	30	3	0	6	0	3	42	14	8	29	1	3340	3260	280	6
6.6.1	mac	0	2023-02-17	15:47:57	Tanya	1	1	experiment	4	dispFeedback_U	1000	1	13	DEV	POS	1	85	0.3287085924149544258	27.9825397344389124044	1	0.7372213047317278667	13	15	30	4	0	7	0	3	42	15	8	29	0	3376	3261	281	1
6.6.1	mac	0	2023-02-17	15:47:57	Tanya	1	1	experiment	4	experiment_noU	775	1	23	DEV	POS	1						23	15	30	4	0	7	0	3	42	15	8	29	0	3376	3261	281	1
6.6.1	mac	0	2023-02-17	15:47:57	Tanya	1	1	experiment	4	dispFeedback_noU	1000	1	23	DEV	POS	1	81	0.3447094557326511044	27.7915136959639141878	81	0.0195000926078064581	23	15	30	4	0	7	0	3	42	16	8	29	0	3175	3342	287	6
6.6.1	mac	0	2023-02-17	15:47:57	Tanya	1	1	experiment	4	experiment_noU	582	1	51	DEV	POS	1						51	15	30	4	0	7	0	3	42	16	8	29	0	3175	3342	287	6
6.6.1	mac	0	2023-02-17	15:47:57	Tanya	1	1	experiment	4	dispFeedback_noU	1000	1	51	DEV	POS	1	88	0.2480647827880542167	21.9127037681984901951	1	0.4036716586918737137	51	15	30	4	0	7	0	3	42	17	8	29	0	4382	3343	288	1
6.6.1	mac	0	2023-02-17	15:47:57	Tanya	1	1	experiment	4	experiment_noU	2110	1	41	DEV	POS	1						41	15	30	4	0	7	0	3	42	17	8	29	0	4382	3343	288	1
6.6.1	mac	0	2023-02-17	15:47:57	Tanya	1	1	experiment	4	dispFeedback_noU	1000	1	41	DEV	POS	1	69	0.7878357294901742192	54.456113952100572817	69	0.2245923004170396198	41	15	30	4	0	7	0	3	42	18	8	29	0	410	3412	293	5
6.6.1	mac	0	2023-02-17	15:47:57	Tanya	1	1	experiment	4	experiment_noU	583	1	95	DEV	POS	1						95	15	30	4	0	7	0	3	42	18	8	29	0	410	3412	293	5
6.6.1	mac	0	2023-02-17	15:47:57	Tanya	1	1	experiment	4	dispFeedback_noU	1000	1	95	DEV	POS	1	78	0.5325903243185098335	41.7191083935185886844	78	0.3463611342819317152	95	15	30	4	0	7	0	3	42	19	8	29	0	1583	3490	299	6
6.6.1	mac	0	2023-02-17	15:47:57	Tanya	1	1	experiment	4	experiment_noU	893	1	18	DEV	POS	1						18	15	30	4	0	7	0	3	42	19	8	29	0	1583	3490	299	6
6.6.1	mac	0	2023-02-17	15:47:57	Tanya	1	1	experiment	4	dispFeedback_noU	1000	1	18	DEV	POS	1	87	0.355668877100885128	31.0415088165809684995	87	0.2314523610359645323	18	15	30	4	0	7	0	3	42	20	8	29	0	3043	3577	305	6
6.6.1	mac	0	2023-02-17	15:47:57	Tanya	1	1	experiment	4	experiment_noU	584	1	54	DEV	POS	1						54	15	30	4	0	7	0	3	42	20	8	29	0	3043	3577	305	6
6.6.1	mac	0	2023-02-17	15:47:57	Tanya	1	1	experiment	4	dispFeedback_noU	1000	1	54	DEV	POS	1	90	0.234081359257700794	20.980550908628252671	1	0.7704878702691029257	54	15	30	4	0	7	0	3	42	21	8	29	0	4534	3578	306	1
6.6.1	mac	0	2023-02-17	15:47:57	Tanya	1	1	experiment	4	experiment_noU	416	1	4	DEV	POS	1						4	15	30	4	0	7	0	3	42	21	8	29	0	4534	3578	306	1
6.6.1	mac	0	2023-02-17	15:47:57	Tanya	1	1	experiment	4	dispFeedback_noU	1000	1	4	DEV	POS	1	81	0.4874706743158805367	39.2418940347940150559	1	0.9657315753786199775	4	15	30	4	0	7	0	3	42	22	8	29	0	1866	3579	307	1
6.6.1	mac	0	2023-02-17	15:47:57	Tanya	1	1	experiment	4	experiment_noU	590	1	63	DEV	POS	1						63	15	30	4	0	7	0	3	42	22	8	29	0	1866	3579	307	1
6.6.1	mac	0	2023-02-17	15:47:57	Tanya	1	1	experiment	4	dispFeedback_noU	1000	1	63	DEV	POS	1	81	0.1868488957644685033	15.2215808812575126296	1	0.5089029247194768457	63	15	30	4	0	7	0	3	42	23	8	29	0	4990	3580	308	1
6.6.1	mac	0	2023-02-17	15:47:57	Tanya	1	1	experiment	4	experiment_noU	1029	1	70	DEV	POS	1						70	15	30	4	0	7	0	3	42	23	8	29	0	4990	3580	308	1
6.6.1	mac	0	2023-02-17	15:47:57	Tanya	1	1	experiment	4	dispFeedback_noU	1000	1	70	DEV	POS	1	77	0.6960108830158945326	53.5867232770796917407	77	0.1910655620021432521	70	15	30	4	0	7	0	3	42	24	8	29	0	779	3657	314	6
6.6.1	mac	0	2023-02-17	15:47:57	Tanya	1	1	experiment	4	experiment_noU	1468	1	42	DEV	POS	1						42	15	30	4	0	7	0	3	42	24	8	29	0	779	3657	314	6
6.6.1	mac	0	2023-02-17	15:47:57	Tanya	1	1	experiment	4	dispFeedback_noU	1000	1	42	DEV	POS	1	90	0.2056748761401594738	18.5431753329687936116	90	0.1260946155819330783	42	15	30	4	0	7	0	3	42	25	8	29	0	4818	3747	321	7
6.6.1	mac	0	2023-02-17	15:47:57	Tanya	1	1	experiment	4	experiment_noU	511	1	96	DEV	POS	1						96	15	30	4	0	7	0	3	42	25	8	29	0	4818	3747	321	7
6.6.1	mac	0	2023-02-17	15:47:57	Tanya	1	1	experiment	4	dispFeedback_noU	1000	1	96	DEV	POS	1	77	0.536362452039756854	41.4262890611325858004	1	0.7676158800645768165	96	15	30	4	0	7	0	3	42	26	8	29	0	1561	3748	322	1
6.6.1	mac	0	2023-02-17	15:47:57	Tanya	1	1	experiment	4	experiment_noU	393	1	31	DEV	POS	1						31	15	30	4	0	7	0	3	42	26	8	29	0	1561	3748	322	1
6.6.1	mac	0	2023-02-17	15:47:57	Tanya	1	1	experiment	4	dispFeedback_noU	1000	1	31	DEV	POS	1	88	0.3432468270191132431	30.0922274074899576135	1	0.8693874571168300758	31	15	30	4	0	7	0	3	42	27	8	29	0	3193	3749	323	1
6.6.1	mac	0	2023-02-17	15:47:57	Tanya	1	1	experiment	4	experiment_noU	696	1	79	DEV	POS	1						79	15	30	4	0	7	0	3	42	27	8	29	0	3193	3749	323	1
6.6.1	mac	0	2023-02-17	15:47:57	Tanya	1	1	experiment	4	dispFeedback_noU	1000	1	79	DEV	POS	1	72	0.6689953060618063496	48.0021243528138015222	72	0.6231724951935867507	79	15	30	4	0	7	0	3	42	28	8	29	0	896	3821	328	5
6.6.1	mac	0	2023-02-17	15:47:57	Tanya	1	1	experiment	4	experiment_noU	506	1	38	DEV	POS	1						38	15	30	4	0	7	0	3	42	28	8	29	0	896	3821	328	5
6.6.1	mac	0	2023-02-17	15:47:57	Tanya	1	1	experiment	4	dispFeedback_noU	1000	1	38	DEV	POS	1	84	0.307118290421459994	25.734392036546374527	84	0.2816226378273271602	38	15	30	4	0	7	0	3	42	29	8	29	2	3656	3905	334	6
6.6.1	mac	0	2023-02-17	15:47:57	Tanya	1	1	experiment	4	experiment_U	1941	1	75	DEV	POS	1						75	15	30	4	0	7	0	3	42	29	8	29	2	3656	3905	334	6
6.6.1	mac	0	2023-02-17	15:47:57	Tanya	1	1	experiment	4	dispFeedback_U	1000	1	75	DEV	POS	1	82	0.4765398571527874605	38.9757799089116474534	1	0.9130566196779387189	75	15	30	4	1	7	1	3	42	30	8	29	2	1941	3906	335	1
6.6.1	mac	0	2023-02-17	15:47:57	Tanya	1	1	experiment	4	experiment_U	837	1	25	DEV	POS	1						25	15	30	4	1	7	1	3	42	30	8	29	2	1941	3906	335	1
6.6.1	mac	0	2023-02-17	15:47:57	Tanya	1	1	experiment	4	dispFeedback_U	1000	1	25	DEV	POS	1	82	0.3317638095125465814	27.2154383282509613196	1	0.6471122432609816011	25	15	30	4	1	7	2	3	42	31	8	29	2	3337	3907	336	1
6.6.1	mac	0	2023-02-17	15:47:57	Tanya	1	1	experiment	4	experiment_U	1570	1	83	DEV	POS	1						83	15	30	4	1	7	2	3	42	31	8	29	2	3337	3907	336	1
6.6.1	mac	0	2023-02-17	15:47:57	Tanya	1	1	experiment	4	dispFeedback_U	1000	1	83	DEV	POS	1	83	0.4724241744454087399	39.1631786629213536344	1	0.7568943586100113086	83	15	30	4	2	7	3	3	42	32	8	29	2	1970	3908	337	1
6.6.1	mac	0	2023-02-17	15:47:57	Tanya	1	1	experiment	4	experiment_U	545	1	6	DEV	POS	1						6	15	30	4	2	7	3	3	42	32	8	29	2	1970	3908	337	1
6.6.1	mac	0	2023-02-17	15:47:57	Tanya	1	1	experiment	4	dispFeedback_U	1000	1	6	DEV	POS	1	80	0.4553718997541829072	36.5918069341650209481	1	0.5277204149234389075	6	15	30	4	3	7	4	3	42	33	8	29	2	2095	3909	338	1
6.6.1	mac	0	2023-02-17	15:47:57	Tanya	1	1	experiment	4	experiment_U	843	1	97	DEV	POS	1						97	15	30	4	3	7	4	3	42	33	8	29	2	2095	3909	338	1
6.6.1	mac	0	2023-02-17	15:47:57	Tanya	1	1	experiment	4	dispFeedback_U	1000	1	97	DEV	POS	1	77	0.4762540494036442418	36.5747389491363179559	77	0.0345065351655954797	97	15	30	4	4	7	5	3	42	34	8	29	0	1943	3986	344	6
6.6.1	mac	0	2023-02-17	15:47:57	Tanya	1	1	experiment	4	experiment_noU	552	1	44	DEV	POS	1						44	15	30	4	4	7	5	3	42	34	8	29	0	1943	3986	344	6
6.6.1	mac	0	2023-02-17	15:47:57	Tanya	1	1	experiment	4	dispFeedback_noU	1000	1	44	DEV	POS	1	89	0.2801288141617118699	24.8074884928839622944	1	0.9980695077679281324	44	15	30	4	4	7	5	3	42	35	8	29	0	4002	3987	345	1
6.6.1	mac	0	2023-02-17	15:47:57	Tanya	1	1	experiment	4	experiment_noU	1457	1	44	DEV	POS	1						44	15	30	4	4	7	5	3	42	35	8	29	0	4002	3987	345	1
6.6.1	mac	0	2023-02-17	15:47:57	Tanya	1	1	experiment	4	dispFeedback_noU	1000	1	44	DEV	POS	1	86	0.1960945813165913265	16.9264353911502603012	1	0.7248968988947795955	44	15	30	4	4	7	5	3	42	36	8	29	0	4907	3988	346	1
6.6.1	mac	0	2023-02-17	15:47:57	Tanya	1	1	experiment	4	experiment_noU	597	1	17	DEV	POS	1						17	15	30	4	4	7	5	3	42	36	8	29	0	4907	3988	346	1
6.6.1	mac	0	2023-02-17	15:47:57	Tanya	1	1	experiment	4	dispFeedback_noU	1000	1	17	DEV	POS	1	80	0.3870202100713561189	31.0802306364661866667	80	0.1991142037322544966	17	15	30	4	4	7	5	3	42	37	8	29	0	2697	4068	352	6
6.6.1	mac	0	2023-02-17	15:47:57	Tanya	1	1	experiment	4	experiment_noU	844	1	100	DEV	POS	1						100	15	30	4	4	7	5	3	42	37	8	29	0	2697	4068	352	6
6.6.1	mac	0	2023-02-17	15:47:57	Tanya	1	1	experiment	4	dispFeedback_noU	1000	1	100	DEV	POS	1	75	0.4555039804421565641	34.3232704893192135387	75	0.3559245572788465317	100	15	30	4	4	7	5	3	42	38	8	29	0	2094	4143	358	6
6.6.1	mac	0	2023-02-17	15:47:57	Tanya	1	1	experiment	4	experiment_noU	1096	1	92	DEV	POS	1						92	15	30	4	4	7	5	3	42	38	8	29	0	2094	4143	358	6
6.6.1	mac	0	2023-02-17	15:47:57	Tanya	1	1	experiment	4	dispFeedback_noU	1000	1	92	DEV	POS	1	77	0.4758258859296665699	36.5472553195736722387	1	0.7974961767432969806	92	15	30	4	4	7	5	3	42	39	8	29	0	1946	4144	359	1
6.6.1	mac	0	2023-02-17	15:47:57	Tanya	1	1	experiment	4	experiment_noU	1355	1	2	DEV	POS	1						2	15	30	4	4	7	5	3	42	39	8	29	0	1946	4144	359	1
6.6.1	mac	0	2023-02-17	15:47:57	Tanya	1	1	experiment	4	dispFeedback_noU	1000	1	2	DEV	POS	1	84	0.3862421701393758955	32.5718030521156549639	1	0.5707651641151786359	2	15	30	4	4	7	5	3	42	40	8	29	0	2705	4145	360	1
6.6.1	mac	0	2023-02-17	15:47:57	Tanya	1	1	experiment	4	experiment_noU	739	1	95	DEV	POS	1						95	15	30	4	4	7	5	3	42	40	8	29	0	2705	4145	360	1
6.6.1	mac	0	2023-02-17	15:47:57	Tanya	1	1	experiment	4	dispFeedback_noU	1000	1	95	DEV	POS	1	76	0.506947410800938969	38.5246745951276992059	76	0.4121993932435753516	95	15	30	4	4	7	5	3	42	41	8	29	0	1739	4221	366	6
6.6.1	mac	0	2023-02-17	15:47:57	Tanya	1	1	experiment	4	experiment_noU	725	1	29	DEV	POS	1						29	15	30	4	4	7	5	3	42	41	8	29	0	1739	4221	366	6
6.6.1	mac	0	2023-02-17	15:47:57	Tanya	1	1	experiment	4	dispFeedback_noU	1000	1	29	DEV	POS	1	78	0.3248947798595079317	25.4224359330347233765	1	0.5599104530550330638	29	15	30	4	4	7	5	3	42	42	8	29	0	3425	4222	367	1
6.6.1	mac	0	2023-02-17	15:47:57	Tanya	1	1	experiment	5	experiment_noU	645	1	87	DEV	POS	1						87	20	25	0	0	0	0	4	32	0	12	26	0	3425	4222	367	1
6.6.1	mac	0	2023-02-17	15:47:57	Tanya	1	1	experiment	5	dispFeedback_noU	1000	1	87	DEV	POS	1	76	0.5948865081543344147	45.0508579164561808739	76	0.0054278317851544902	87	20	25	0	0	0	0	4	32	1	12	26	0	1245	4298	373	6
6.6.1	mac	0	2023-02-17	15:47:57	Tanya	1	1	experiment	5	experiment_noU	1449	1	83	DEV	POS	1						83	20	25	0	0	0	0	4	32	1	12	26	0	1245	4298	373	6
6.6.1	mac	0	2023-02-17	15:47:57	Tanya	1	1	experiment	5	dispFeedback_noU	1000	1	83	DEV	POS	1	75	0.4900066303325716355	36.9634365376899722833	75	0.3091098778669512659	83	20	25	0	0	0	0	4	32	2	12	26	0	1849	4373	379	6
6.6.1	mac	0	2023-02-17	15:47:57	Tanya	1	1	experiment	5	experiment_noU	1182	1	21	DEV	POS	1						21	20	25	0	0	0	0	4	32	2	12	26	0	1849	4373	379	6
6.6.1	mac	0	2023-02-17	15:47:57	Tanya	1	1	experiment	5	dispFeedback_noU	1000	1	21	DEV	POS	1	81	0.3204858253438003235	26.082882729606996719	81	0.0188270136757816703	21	20	25	0	0	0	0	4	32	3	12	26	0	3482	4454	385	6
6.6.1	mac	0	2023-02-17	15:47:57	Tanya	1	1	experiment	5	experiment_noU	525	1	4	DEV	POS	1						4	20	25	0	0	0	0	4	32	3	12	26	0	3482	4454	385	6
6.6.1	mac	0	2023-02-17	15:47:57	Tanya	1	1	experiment	5	dispFeedback_noU	1000	1	4	DEV	POS	1	77	0.4717207436811023946	36.2833664207459847262	1	0.5552070714894699055	4	20	25	0	0	0	0	4	32	4	12	26	0	1975	4455	386	1
6.6.1	mac	0	2023-02-17	15:47:57	Tanya	1	1	experiment	5	experiment_noU	629	1	96	DEV	POS	1						96	20	25	0	0	0	0	4	32	4	12	26	0	1975	4455	386	1
6.6.1	mac	0	2023-02-17	15:47:57	Tanya	1	1	experiment	5	dispFeedback_noU	1000	1	96	DEV	POS	1	82	0.5165825813359959939	42.2277099687693180385	1	0.8798168820514848942	96	20	25	0	0	0	0	4	32	5	12	26	0	1679	4456	387	1
6.6.1	mac	0	2023-02-17	15:47:57	Tanya	1	1	experiment	5	experiment_noU	379	1	82	DEV	POS	1						82	20	25	0	0	0	0	4	32	5	12	26	0	1679	4456	387	1
6.6.1	mac	0	2023-02-17	15:47:57	Tanya	1	1	experiment	5	dispFeedback_noU	1000	1	82	DEV	POS	1	76	0.7078761767948734684	53.5489227683779702716	76	0.5058976371087826607	82	20	25	0	0	0	0	4	32	6	12	26	0	729	4532	393	6
6.6.1	mac	0	2023-02-17	15:47:57	Tanya	1	1	experiment	5	experiment_noU	777	1	28	DEV	POS	1						28	20	25	0	0	0	0	4	32	6	12	26	0	729	4532	393	6
6.6.1	mac	0	2023-02-17	15:47:57	Tanya	1	1	experiment	5	dispFeedback_noU	1000	1	28	DEV	POS	1	82	0.3247396247625716215	26.7108279365917127279	1	0.4064277790967439907	28	20	25	0	0	0	0	4	32	7	12	26	0	3427	4533	394	1
6.6.1	mac	0	2023-02-17	15:47:57	Tanya	1	1	experiment	5	experiment_noU	1257	1	66	DEV	POS	1						66	20	25	0	0	0	0	4	32	7	12	26	0	3427	4533	394	1
6.6.1	mac	0	2023-02-17	15:47:57	Tanya	1	1	experiment	5	dispFeedback_noU	1000	1	66	DEV	POS	1	72	0.6894493436299020672	49.7636000754493039722	72	0.3546333528018168479	66	20	25	0	0	0	0	4	32	8	12	26	0	807	4605	399	5
6.6.1	mac	0	2023-02-17	15:47:57	Tanya	1	1	experiment	5	experiment_noU	1124	1	89	DEV	POS	1						89	20	25	0	0	0	0	4	32	8	12	26	0	807	4605	399	5
6.6.1	mac	0	2023-02-17	15:47:57	Tanya	1	1	experiment	5	dispFeedback_noU	1000	1	89	DEV	POS	1	74	0.4937756093892816667	36.7053048039456228935	1	0.996426814467745503	89	20	25	0	0	0	0	4	32	9	12	26	0	1824	4606	400	1
6.6.1	mac	0	2023-02-17	15:47:57	Tanya	1	1	experiment	5	experiment_noU	1701	1	79	DEV	POS	1						79	20	25	0	0	0	0	4	32	9	12	26	0	1824	4606	400	1
6.6.1	mac	0	2023-02-17	15:47:57	Tanya	1	1	experiment	5	dispFeedback_noU	1000	1	79	DEV	POS	1	78	0.4823177342711166826	37.4454668802228098912	1	0.6138499247873784315	79	20	25	0	0	0	0	4	32	10	12	26	0	1901	4607	401	1
6.6.1	mac	0	2023-02-17	15:47:57	Tanya	1	1	experiment	5	experiment_noU	3166	1	80	DEV	POS	1						80	20	25	0	0	0	0	4	32	10	12	26	0	1901	4607	401	1
6.6.1	mac	0	2023-02-17	15:47:57	Tanya	1	1	experiment	5	dispFeedback_noU	1000	1	80	DEV	POS	1	84	0.3255934408805325475	27.4235539368525316206	84	0.245805683370168726	80	20	25	0	0	0	0	4	32	11	12	26	0	3416	4691	407	6
6.6.1	mac	0	2023-02-17	15:47:57	Tanya	1	1	experiment	5	experiment_noU	670	1	34	DEV	POS	1						34	20	25	0	0	0	0	4	32	11	12	26	0	3416	4691	407	6
6.6.1	mac	0	2023-02-17	15:47:57	Tanya	1	1	experiment	5	dispFeedback_noU	1000	1	34	DEV	POS	1	85	0.3098805025174757311	26.2500104673298402247	1	0.6521591198752073604	34	20	25	0	0	0	0	4	32	12	12	26	1	3620	4692	408	1
6.6.1	mac	0	2023-02-17	15:47:57	Tanya	1	1	experiment	5	experiment_U	1377	1	41	DEV	POS	1						41	20	25	0	0	0	0	4	32	12	12	26	1	3620	4692	408	1
6.6.1	mac	0	2023-02-17	15:47:57	Tanya	1	1	experiment	5	dispFeedback_U	1000	1	41	DEV	POS	1	83	0.2201740580497620892	18.2521781426659686076	1	0.4587940130054005694	41	20	25	0	0	1	0	4	32	13	12	26	1	4677	4693	409	1
6.6.1	mac	0	2023-02-17	15:47:57	Tanya	1	1	experiment	5	experiment_U	456	1	31	DEV	POS	1						31	20	25	0	0	1	0	4	32	13	12	26	1	4677	4693	409	1
6.6.1	mac	0	2023-02-17	15:47:57	Tanya	1	1	experiment	5	dispFeedback_U	1000	1	31	DEV	POS	1	84	0.3381787578264264793	28.3494870298467240843	84	0.1369259811790953241	31	20	25	1	0	2	0	4	32	14	12	26	1	3256	4777	415	6
6.6.1	mac	0	2023-02-17	15:47:57	Tanya	1	1	experiment	5	experiment_U	517	1	44	DEV	POS	1						44	20	25	1	0	2	0	4	32	14	12	26	1	3256	4777	415	6
6.6.1	mac	0	2023-02-17	15:47:57	Tanya	1	1	experiment	5	dispFeedback_U	1000	1	44	DEV	POS	1	88	0.2829235535107792465	25.0338448479314905626	1	0.6388459218756402658	44	20	25	1	0	3	0	4	32	15	12	26	1	3967	4778	416	1
6.6.1	mac	0	2023-02-17	15:47:57	Tanya	1	1	experiment	5	experiment_U	719	1	15	DEV	POS	1						15	20	25	1	0	3	0	4	32	15	12	26	1	3967	4778	416	1
6.6.1	mac	0	2023-02-17	15:47:57	Tanya	1	1	experiment	5	dispFeedback_U	1000	1	15	DEV	POS	1	85	0.3848874394775781971	32.858238641936246438	1	0.7410857795600513942	15	20	25	2	0	4	0	4	32	16	12	26	1	2719	4779	417	1
6.6.1	mac	0	2023-02-17	15:47:57	Tanya	1	1	experiment	5	experiment_U	1761	1	52	DEV	POS	1						52	20	25	2	0	4	0	4	32	16	12	26	1	2719	4779	417	1
6.6.1	mac	0	2023-02-17	15:47:57	Tanya	1	1	experiment	5	dispFeedback_U	1000	1	52	DEV	POS	1	69	0.7366154050784109453	50.6684256787287239376	69	0.0633250698594667594	52	20	25	2	0	5	0	4	32	17	12	26	1	611	4848	422	5
6.6.1	mac	0	2023-02-17	15:47:57	Tanya	1	1	experiment	5	experiment_U	538	1	33	DEV	POS	1						33	20	25	2	0	5	0	4	32	17	12	26	1	611	4848	422	5
6.6.1	mac	0	2023-02-17	15:47:57	Tanya	1	1	experiment	5	dispFeedback_U	1000	1	33	DEV	POS	1	86	0.3238869147658031133	27.9448589032507825891	1	0.5791092551264700461	33	20	25	2	0	6	0	4	32	18	12	26	1	3438	4849	423	1
6.6.1	mac	0	2023-02-17	15:47:57	Tanya	1	1	experiment	5	experiment_U	659	1	18	DEV	POS	1						18	20	25	2	0	6	0	4	32	18	12	26	1	3438	4849	423	1
6.6.1	mac	0	2023-02-17	15:47:57	Tanya	1	1	experiment	5	dispFeedback_U	1000	1	18	DEV	POS	1	84	0.3763781834530059989	31.4768325810259490538	1	0.4915275637739169312	18	20	25	3	0	7	0	4	32	19	12	26	1	2809	4850	424	1
6.6.1	mac	0	2023-02-17	15:47:57	Tanya	1	1	experiment	5	experiment_U	727	1	19	DEV	POS	1						19	20	25	3	0	7	0	4	32	19	12	26	1	2809	4850	424	1
6.6.1	mac	0	2023-02-17	15:47:57	Tanya	1	1	experiment	5	dispFeedback_U	1000	1	19	DEV	POS	1	84	0.3657024592175819322	30.7049677662285134261	1	0.7737128042554745067	19	20	25	4	0	8	0	4	32	20	12	26	0	2927	4851	425	1
6.6.1	mac	0	2023-02-17	15:47:57	Tanya	1	1	experiment	5	experiment_noU	1498	1	91	DEV	POS	1						91	20	25	4	0	8	0	4	32	20	12	26	0	2927	4851	425	1
6.6.1	mac	0	2023-02-17	15:47:57	Tanya	1	1	experiment	5	dispFeedback_noU	1000	1	91	DEV	POS	1	76	0.4299353717375500317	32.69959748605316463	1	0.676188739639750902	91	20	25	4	0	8	0	4	32	21	12	26	0	2298	4852	426	1
6.6.1	mac	0	2023-02-17	15:47:57	Tanya	1	1	experiment	5	experiment_noU	444	1	84	DEV	POS	1						84	20	25	4	0	8	0	4	32	21	12	26	0	2298	4852	426	1
6.6.1	mac	0	2023-02-17	15:47:57	Tanya	1	1	experiment	5	dispFeedback_noU	1000	1	84	DEV	POS	1	73	0.6694481575325110789	48.6956714263002439225	73	0.0298428114107443972	84	20	25	4	0	8	0	4	32	22	12	26	0	894	4925	431	5
6.6.1	mac	0	2023-02-17	15:47:57	Tanya	1	1	experiment	5	experiment_noU	568	1	10	DEV	POS	1						10	20	25	4	0	8	0	4	32	22	12	26	0	894	4925	431	5
6.6.1	mac	0	2023-02-17	15:47:57	Tanya	1	1	experiment	5	dispFeedback_noU	1000	1	10	DEV	POS	1	79	0.4275717003802554927	33.8309678929048658347	1	0.7492373692219232995	10	20	25	4	0	8	0	4	32	23	12	26	0	2318	4926	432	1
6.6.1	mac	0	2023-02-17	15:47:57	Tanya	1	1	experiment	5	experiment_noU	1841	1	6	DEV	POS	1						6	20	25	4	0	8	0	4	32	23	12	26	0	2318	4926	432	1
6.6.1	mac	0	2023-02-17	15:47:57	Tanya	1	1	experiment	5	dispFeedback_noU	1000	1	6	DEV	POS	1	88	0.3275383938430609376	28.8775689615611774741	1	0.4932268265386174355	6	20	25	4	0	8	0	4	32	24	12	26	0	3391	4927	433	1
6.6.1	mac	0	2023-02-17	15:47:57	Tanya	1	1	experiment	5	experiment_noU	533	1	70	DEV	POS	1						70	20	25	4	0	8	0	4	32	24	12	26	0	3391	4927	433	1
6.6.1	mac	0	2023-02-17	15:47:57	Tanya	1	1	experiment	5	dispFeedback_noU	1000	1	70	DEV	POS	1	69	0.8215614793476679889	56.610590223546395805	69	0.0686119306060978956	70	20	25	4	0	8	0	4	32	25	12	26	0	283	4996	438	5
6.6.1	mac	0	2023-02-17	15:47:57	Tanya	1	1	experiment	5	experiment_noU	671	1	92	DEV	POS	1						92	20	25	4	0	8	0	4	32	25	12	26	0	283	4996	438	5
6.6.1	mac	0	2023-02-17	15:47:57	Tanya	1	1	experiment	5	dispFeedback_noU	1000	1	92	DEV	POS	1	80	0.5433207569170102058	43.4966995113853513999	80	0.0899764646519852079	92	20	25	4	0	8	0	4	32	26	12	26	2	1521	5076	444	6
6.6.1	mac	0	2023-02-17	15:47:57	Tanya	1	1	experiment	5	experiment_U	642	1	18	DEV	POS	1						18	20	25	4	0	8	0	4	32	26	12	26	2	1521	5076	444	6
6.6.1	mac	0	2023-02-17	15:47:57	Tanya	1	1	experiment	5	dispFeedback_U	1000	1	18	DEV	POS	1	84	0.3779598482453980779	31.5907531101415628427	1	0.7352315522113888058	18	20	25	4	1	8	1	4	32	27	12	26	2	2792	5077	445	1
6.6.1	mac	0	2023-02-17	15:47:57	Tanya	1	1	experiment	5	experiment_U	1718	1	90	DEV	POS	1						90	20	25	4	1	8	1	4	32	27	12	26	2	2792	5077	445	1
6.6.1	mac	0	2023-02-17	15:47:57	Tanya	1	1	experiment	5	dispFeedback_U	1000	1	90	DEV	POS	1	86	0.4105990905051293272	35.1507958610043402814	1	0.9574012467538475235	90	20	25	4	2	8	2	4	32	28	12	26	2	2468	5078	446	1
6.6.1	mac	0	2023-02-17	15:47:57	Tanya	1	1	experiment	5	experiment_U	1040	1	33	DEV	POS	1						33	20	25	4	2	8	2	4	32	28	12	26	2	2468	5078	446	1
6.6.1	mac	0	2023-02-17	15:47:57	Tanya	1	1	experiment	5	dispFeedback_U	1000	1	33	DEV	POS	1	82	0.2850661183252432562	23.4964882717659619971	1	0.9910771858391997924	33	20	25	4	2	8	3	4	32	29	12	26	2	3940	5079	447	1
6.6.1	mac	0	2023-02-17	15:47:57	Tanya	1	1	experiment	5	experiment_U	836	1	1	DEV	POS	1						1	20	25	4	2	8	3	4	32	29	12	26	2	3940	5079	447	1
6.6.1	mac	0	2023-02-17	15:47:57	Tanya	1	1	experiment	5	dispFeedback_U	1000	1	1	DEV	POS	1	76	0.4500153560761001037	33.9768339011965068153	1	0.8667424011199601486	1	20	25	4	2	8	4	4	32	30	12	26	2	2136	5080	448	1
6.6.1	mac	0	2023-02-17	15:47:57	Tanya	1	1	experiment	5	experiment_U	593	1	14	DEV	POS	1						14	20	25	4	2	8	4	4	32	30	12	26	2	2136	5080	448	1
6.6.1	mac	0	2023-02-17	15:47:57	Tanya	1	1	experiment	5	dispFeedback_U	1000	1	14	DEV	POS	1	82	0.402584683529541465	32.9485534931308166051	1	0.9088535625275349084	14	20	25	4	3	8	5	4	32	31	12	26	2	2543	5081	449	1
6.6.1	mac	0	2023-02-17	15:47:57	Tanya	1	1	experiment	5	experiment_U	681	1	79	DEV	POS	1						79	20	25	4	3	8	5	4	32	31	12	26	2	2543	5081	449	1
6.6.1	mac	0	2023-02-17	15:47:57	Tanya	1	1	experiment	5	dispFeedback_U	1000	1	79	DEV	POS	1	77	0.6723993473829658063	51.5448754889961051617	1	0.8861452175504865858	79	20	25	4	3	8	6	4	32	32	12	26	2	881	5082	450	1
6.6.1	mac	0	2023-02-17	15:47:57	Tanya	1	1	experiment	6	experiment_noU	732	1	48	CEV	POS	1						48	30	10	0	0	0	0	5	35	0	9	31	2	881	5082	450	1
6.6.1	mac	0	2023-02-17	15:47:57	Tanya	1	1	experiment	6	dispFeedback_noU	1000	1	48	CEV	POS	1	139	0.2740000000000000213	38.096000000000003638	1	0.3121041481644157844	48	30	10	0	0	0	0	5	35	1	9	31	0	4382	5083	451	1
6.6.1	mac	0	2023-02-17	15:47:57	Tanya	1	1	experiment	6	experiment_noU	1293	1	93	CEV	POS	1						93	30	10	0	0	0	0	5	35	1	9	31	0	4382	5083	451	1
6.6.1	mac	0	2023-02-17	15:47:57	Tanya	1	1	experiment	6	dispFeedback_noU	1000	1	93	CEV	POS	1	60	0.5867142857142857437	35.2398571428571472097	1	0.9324728329508734648	93	30	10	0	0	0	0	5	35	2	9	31	0	2193	5084	452	1
6.6.1	mac	0	2023-02-17	15:47:57	Tanya	1	1	experiment	6	experiment_noU	711	1	58	CEV	POS	1						58	30	10	0	0	0	0	5	35	2	9	31	0	2193	5084	452	1
6.6.1	mac	0	2023-02-17	15:47:57	Tanya	1	1	experiment	6	dispFeedback_noU	1000	1	58	CEV	POS	1	182	0.2055714285714285161	37.4111428571428490386	182	0.1458161718085911607	58	30	10	0	0	0	0	5	35	3	9	31	0	4861	5266	462	10
6.6.1	mac	0	2023-02-17	15:47:57	Tanya	1	1	experiment	6	experiment_noU	2457	1	19	CEV	POS	1						19	30	10	0	0	0	0	5	35	3	9	31	0	4861	5266	462	10
6.6.1	mac	0	2023-02-17	15:47:57	Tanya	1	1	experiment	6	dispFeedback_noU	1000	1	19	CEV	POS	1	157	0.2347142857142857642	36.7652857142857243389	1	0.5806577302470472546	19	30	10	0	0	0	0	5	35	4	9	31	0	4657	5267	463	1
6.6.1	mac	0	2023-02-17	15:47:57	Tanya	1	1	experiment	6	experiment_noU	932	1	48	CEV	POS	1						48	30	10	0	0	0	0	5	35	4	9	31	0	4657	5267	463	1
6.6.1	mac	0	2023-02-17	15:47:57	Tanya	1	1	experiment	6	dispFeedback_noU	1000	1	48	CEV	POS	1	151	0.2454285714285714404	37	1	0.4993312269214846277	48	30	10	0	0	0	0	5	35	5	9	31	0	4582	5268	464	1
6.6.1	mac	0	2023-02-17	15:47:57	Tanya	1	1	experiment	6	experiment_noU	1598	1	33	CEV	POS	1						33	30	10	0	0	0	0	5	35	5	9	31	0	4582	5268	464	1
6.6.1	mac	0	2023-02-17	15:47:57	Tanya	1	1	experiment	6	dispFeedback_noU	1000	1	33	CEV	POS	1	145	0.257428571428571451	37.2574285714285693416	1	0.8471552161143988124	33	30	10	0	0	0	0	5	35	6	9	31	0	4498	5269	465	1
6.6.1	mac	0	2023-02-17	15:47:57	Tanya	1	1	experiment	6	experiment_noU	731	1	12	CEV	POS	1						12	30	10	0	0	0	0	5	35	6	9	31	0	4498	5269	465	1
6.6.1	mac	0	2023-02-17	15:47:57	Tanya	1	1	experiment	6	dispFeedback_noU	1000	1	12	CEV	POS	1	68	0.5312857142857143611	35.9374285714285761628	1	0.8894070458806602186	12	30	10	0	0	0	0	5	35	7	9	31	0	2581	5270	466	1
6.6.1	mac	0	2023-02-17	15:47:57	Tanya	1	1	experiment	6	experiment_noU	1965	1	5	CEV	POS	1						5	30	10	0	0	0	0	5	35	7	9	31	0	2581	5270	466	1
6.6.1	mac	0	2023-02-17	15:47:57	Tanya	1	1	experiment	6	dispFeedback_noU	1000	1	5	CEV	POS	1	89	0.4050000000000000266	36.1900000000000048317	1	0.6354975224555231561	5	30	10	0	0	0	0	5	35	8	9	31	0	3465	5271	467	1
6.6.1	mac	0	2023-02-17	15:47:57	Tanya	1	1	experiment	6	experiment_noU	588	1	45	CEV	POS	1						45	30	10	0	0	0	0	5	35	8	9	31	0	3465	5271	467	1
6.6.1	mac	0	2023-02-17	15:47:57	Tanya	1	1	experiment	6	dispFeedback_noU	1000	1	45	CEV	POS	1	113	0.3159999999999999476	35.7359999999999899956	1	0.7878683055257118539	45	30	10	0	0	0	0	5	35	9	9	31	1	4088	5272	468	1
6.6.1	mac	0	2023-02-17	15:47:57	Tanya	1	1	experiment	6	experiment_U	755	1	30	CEV	POS	1						30	30	10	0	0	0	0	5	35	9	9	31	1	4088	5272	468	1
6.6.1	mac	0	2023-02-17	15:47:57	Tanya	1	1	experiment	6	dispFeedback_U	1000	1	30	CEV	POS	1	89	0.3992857142857142438	35.4028571428571439128	1	0.4776465139532570237	30	30	10	0	0	1	0	5	35	10	9	31	1	3505	5273	469	1
6.6.1	mac	0	2023-02-17	15:47:57	Tanya	1	1	experiment	6	experiment_U	1348	1	69	CEV	POS	1						69	30	10	0	0	1	0	5	35	10	9	31	1	3505	5273	469	1
6.6.1	mac	0	2023-02-17	15:47:57	Tanya	1	1	experiment	6	dispFeedback_U	1000	1	69	CEV	POS	1	52	0.7502857142857142225	39.2508571428571428896	1	0.9366761399285579159	69	30	10	0	0	2	0	5	35	11	9	31	1	1048	5274	470	1
6.6.1	mac	0	2023-02-17	15:47:57	Tanya	1	1	experiment	6	experiment_U	1724	1	83	CEV	POS	1						83	30	10	0	0	2	0	5	35	11	9	31	1	1048	5274	470	1
6.6.1	mac	0	2023-02-17	15:47:57	Tanya	1	1	experiment	6	dispFeedback_U	1000	1	83	CEV	POS	1	65	0.5965714285714285303	38.7897142857142895878	1	0.9155316261843619019	83	30	10	1	0	3	0	5	35	12	9	31	1	2124	5275	471	1
6.6.1	mac	0	2023-02-17	15:47:57	Tanya	1	1	experiment	6	experiment_U	629	1	51	CEV	POS	1						51	30	10	1	0	3	0	5	35	12	9	31	1	2124	5275	471	1
6.6.1	mac	0	2023-02-17	15:47:57	Tanya	1	1	experiment	6	dispFeedback_U	1000	1	51	CEV	POS	1	138	0.2672857142857142376	36.9999999999999928946	1	0.6066823423855663977	51	30	10	1	0	4	0	5	35	13	9	31	1	4429	5276	472	1
6.6.1	mac	0	2023-02-17	15:47:57	Tanya	1	1	experiment	6	experiment_U	521	1	96	CEV	POS	1						96	30	10	1	0	4	0	5	35	13	9	31	1	4429	5276	472	1
6.6.1	mac	0	2023-02-17	15:47:57	Tanya	1	1	experiment	6	dispFeedback_U	1000	1	96	CEV	POS	1	54	0.6755714285714284895	36.3244285714285695121	1	0.9316770427235581131	96	30	10	1	0	5	0	5	35	14	9	31	1	1571	5277	473	1
6.6.1	mac	0	2023-02-17	15:47:57	Tanya	1	1	experiment	6	experiment_U	626	1	39	CEV	POS	1						39	30	10	1	0	5	0	5	35	14	9	31	1	1571	5277	473	1
6.6.1	mac	0	2023-02-17	15:47:57	Tanya	1	1	experiment	6	dispFeedback_U	1000	1	39	CEV	POS	1	105	0.3534285714285714253	37	105	0.3528521816136436784	39	30	10	1	0	6	0	5	35	15	9	31	1	3826	5382	481	8
6.6.1	mac	0	2023-02-17	15:47:57	Tanya	1	1	experiment	6	experiment_U	1479	1	25	CEV	POS	1						25	30	10	1	0	6	0	5	35	15	9	31	1	3826	5382	481	8
6.6.1	mac	0	2023-02-17	15:47:57	Tanya	1	1	experiment	6	dispFeedback_U	1000	1	25	CEV	POS	1	108	0.331571428571428517	35.673714285714275718	1	0.7765012611114655572	25	30	10	1	0	7	0	5	35	16	9	31	1	3979	5383	482	1
6.6.1	mac	0	2023-02-17	15:47:57	Tanya	1	1	experiment	6	experiment_U	1003	1	19	CEV	POS	1						19	30	10	1	0	7	0	5	35	16	9	31	1	3979	5383	482	1
6.6.1	mac	0	2023-02-17	15:47:57	Tanya	1	1	experiment	6	dispFeedback_U	1000	1	19	CEV	POS	1	88	0.4424285714285713933	38.7697142857142793559	88	0.0339087897524956577	19	30	10	1	0	8	0	5	35	17	9	31	1	3203	5471	488	6
6.6.1	mac	0	2023-02-17	15:47:57	Tanya	1	1	experiment	6	experiment_U	513	1	21	CEV	POS	1						21	30	10	1	0	8	0	5	35	17	9	31	1	3203	5471	488	6
6.6.1	mac	0	2023-02-17	15:47:57	Tanya	1	1	experiment	6	dispFeedback_U	1000	1	21	CEV	POS	1	75	0.4981428571428571095	37.4981428571428523355	75	0.3010746574264659414	21	30	10	1	0	9	0	5	35	18	9	31	1	2813	5546	494	6
6.6.1	mac	0	2023-02-17	15:47:57	Tanya	1	1	experiment	6	experiment_U	1947	1	75	CEV	POS	1						75	30	10	1	0	9	0	5	35	18	9	31	1	2813	5546	494	6
6.6.1	mac	0	2023-02-17	15:47:57	Tanya	1	1	experiment	6	dispFeedback_U	1000	1	75	CEV	POS	1	61	0.6218571428571428861	38.2437142857142831076	1	0.9388636613587997282	75	30	10	2	0	10	0	5	35	19	9	31	1	1947	5547	495	1
6.6.1	mac	0	2023-02-17	15:47:57	Tanya	1	1	experiment	6	experiment_U	587	1	38	CEV	POS	1						38	30	10	2	0	10	0	5	35	19	9	31	1	1947	5547	495	1
6.6.1	mac	0	2023-02-17	15:47:57	Tanya	1	1	experiment	6	dispFeedback_U	1000	1	38	CEV	POS	1	100	0.3661428571428571033	36.6338571428571384558	1	0.7210836563541282995	38	30	10	2	0	11	0	5	35	20	9	31	1	3737	5548	496	1
6.6.1	mac	0	2023-02-17	15:47:57	Tanya	1	1	experiment	6	experiment_U	595	1	1	CEV	POS	1						1	30	10	2	0	11	0	5	35	20	9	31	1	3737	5548	496	1
6.6.1	mac	0	2023-02-17	15:47:57	Tanya	1	1	experiment	6	dispFeedback_U	1000	1	1	CEV	POS	1	55	0.6292857142857142261	34.4828571428571351021	1	0.7938183124162765392	1	30	10	3	0	12	0	5	35	21	9	31	1	1895	5549	497	1
6.6.1	mac	0	2023-02-17	15:47:57	Tanya	1	1	experiment	6	experiment_U	538	1	27	CEV	POS	1						27	30	10	3	0	12	0	5	35	21	9	31	1	1895	5549	497	1
6.6.1	mac	0	2023-02-17	15:47:57	Tanya	1	1	experiment	6	dispFeedback_U	1000	1	27	CEV	POS	1	77	0.4517142857142857348	34.7414285714285711038	1	0.7681144391577957586	27	30	10	3	0	13	0	5	35	22	9	31	1	3138	5550	498	1
6.6.1	mac	0	2023-02-17	15:47:57	Tanya	1	1	experiment	6	experiment_U	772	1	9	CEV	POS	1						9	30	10	3	0	13	0	5	35	22	9	31	1	3138	5550	498	1
6.6.1	mac	0	2023-02-17	15:47:57	Tanya	1	1	experiment	6	dispFeedback_U	1000	1	9	CEV	POS	1	72	0.5468571428571429305	39.1874285714285761628	72	0.326698853011871404	9	30	10	3	0	14	0	5	35	23	9	31	1	2472	5622	503	5
6.6.1	mac	0	2023-02-17	15:47:57	Tanya	1	1	experiment	6	experiment_U	3268	1	51	CEV	POS	1						51	30	10	3	0	14	0	5	35	23	9	31	1	2472	5622	503	5
6.6.1	mac	0	2023-02-17	15:47:57	Tanya	1	1	experiment	6	dispFeedback_U	1000	1	51	CEV	POS	1	64	0.6045714285714285374	38.8137142857142904973	1	0.6242913474851035094	51	30	10	4	0	15	0	5	35	24	9	31	0	2068	5623	504	1
6.6.1	mac	0	2023-02-17	15:47:57	Tanya	1	1	experiment	6	experiment_noU	1903	1	82	CEV	POS	1						82	30	10	4	0	15	0	5	35	24	9	31	0	2068	5623	504	1
6.6.1	mac	0	2023-02-17	15:47:57	Tanya	1	1	experiment	6	dispFeedback_noU	1000	1	82	CEV	POS	1	65	0.5781428571428570695	37.5781428571428506302	65	0.460769365183256896	82	30	10	4	0	15	0	5	35	25	9	31	0	2253	5688	509	5
6.6.1	mac	0	2023-02-17	15:47:57	Tanya	1	1	experiment	6	experiment_noU	802	1	22	CEV	POS	1						22	30	10	4	0	15	0	5	35	25	9	31	0	2253	5688	509	5
6.6.1	mac	0	2023-02-17	15:47:57	Tanya	1	1	experiment	6	dispFeedback_noU	1000	1	22	CEV	POS	1	78	0.4497142857142857331	35.2011428571428623968	1	0.5776600475836685122	22	30	10	4	0	15	0	5	35	26	9	31	0	3152	5689	510	1
6.6.1	mac	0	2023-02-17	15:47:57	Tanya	1	1	experiment	6	experiment_noU	640	1	43	CEV	POS	1						43	30	10	4	0	15	0	5	35	26	9	31	0	3152	5689	510	1
6.6.1	mac	0	2023-02-17	15:47:57	Tanya	1	1	experiment	6	dispFeedback_noU	1000	1	43	CEV	POS	1	117	0.3228571428571428426	37.6457142857142841308	1	0.8581951735211059695	43	30	10	4	0	15	0	5	35	27	9	31	0	4040	5690	511	1
6.6.1	mac	0	2023-02-17	15:47:57	Tanya	1	1	experiment	6	experiment_noU	966	1	94	CEV	POS	1						94	30	10	4	0	15	0	5	35	27	9	31	0	4040	5690	511	1
6.6.1	mac	0	2023-02-17	15:47:57	Tanya	1	1	experiment	6	dispFeedback_noU	1000	1	94	CEV	POS	1	60	0.6262857142857143344	37.6262857142857143344	60	0.4890727276189887895	94	30	10	4	0	15	0	5	35	28	9	31	0	1916	5750	515	4
6.6.1	mac	0	2023-02-17	15:47:57	Tanya	1	1	experiment	6	experiment_noU	2477	1	67	CEV	POS	1						67	30	10	4	0	15	0	5	35	28	9	31	0	1916	5750	515	4
6.6.1	mac	0	2023-02-17	15:47:57	Tanya	1	1	experiment	6	dispFeedback_noU	1000	1	67	CEV	POS	1	59	0.603285714285714203	35.7934285714285636004	1	0.9610251733011159203	67	30	10	4	0	15	0	5	35	29	9	31	0	2077	5751	516	1
6.6.1	mac	0	2023-02-17	15:47:57	Tanya	1	1	experiment	6	experiment_noU	664	1	53	CEV	POS	1						53	30	10	4	0	15	0	5	35	29	9	31	0	2077	5751	516	1
6.6.1	mac	0	2023-02-17	15:47:57	Tanya	1	1	experiment	6	dispFeedback_noU	1000	1	53	CEV	POS	1	152	0.2479999999999999982	37.7439999999999997726	1	0.5976912494743454873	53	30	10	4	0	15	0	5	35	30	9	31	0	4564	5752	517	1
6.6.1	mac	0	2023-02-17	15:47:57	Tanya	1	1	experiment	6	experiment_noU	1053	1	94	CEV	POS	1						94	30	10	4	0	15	0	5	35	30	9	31	0	4564	5752	517	1
6.6.1	mac	0	2023-02-17	15:47:57	Tanya	1	1	experiment	6	dispFeedback_noU	1000	1	94	CEV	POS	1	58	0.613857142857142879	35.7722857142857151302	1	0.9912975295426551536	94	30	10	4	0	15	0	5	35	31	9	31	2	2003	5753	518	1
6.6.1	mac	0	2023-02-17	15:47:57	Tanya	1	1	experiment	6	experiment_U	1025	1	29	CEV	POS	1						29	30	10	4	0	15	0	5	35	31	9	31	2	2003	5753	518	1
6.6.1	mac	0	2023-02-17	15:47:57	Tanya	1	1	experiment	6	dispFeedback_U	1000	1	29	CEV	POS	1	101	0.3678571428571428825	37	1	0.7834412988236735265	29	30	10	4	1	15	1	5	35	32	9	31	2	3725	5754	519	1
6.6.1	mac	0	2023-02-17	15:47:57	Tanya	1	1	experiment	6	experiment_U	598	1	66	CEV	POS	1						66	30	10	4	1	15	1	5	35	32	9	31	2	3725	5754	519	1
6.6.1	mac	0	2023-02-17	15:47:57	Tanya	1	1	experiment	6	dispFeedback_U	1000	1	66	CEV	POS	1	41	0.8788571428571428923	36.1211428571428569967	41	0.6656323696173802595	66	30	10	4	2	15	2	5	35	33	9	31	2	148	5795	522	3
6.6.1	mac	0	2023-02-17	15:47:57	Tanya	1	1	experiment	6	experiment_U	1438	1	66	CEV	POS	1						66	30	10	4	2	15	2	5	35	33	9	31	2	148	5795	522	3
6.6.1	mac	0	2023-02-17	15:47:57	Tanya	1	1	experiment	6	dispFeedback_U	1000	1	66	CEV	POS	1	44	0.7588571428571428967	33.20571428571429351	1	0.7810434223574221901	66	30	10	4	2	15	3	5	35	34	9	31	2	988	5796	523	1
6.6.1	mac	0	2023-02-17	15:47:57	Tanya	1	1	experiment	6	experiment_U	1921	1	71	CEV	POS	1						71	30	10	4	2	15	3	5	35	34	9	31	2	988	5796	523	1
6.6.1	mac	0	2023-02-17	15:47:57	Tanya	1	1	experiment	6	dispFeedback_U	1000	1	71	CEV	POS	1	52	0.654142857142857137	33.7292857142857158692	1	0.9757083260863340657	71	30	10	4	2	15	4	5	35	35	9	31	2	1721	5797	524	1
6.6.1	mac	0	2023-02-17	15:47:57	Tanya	1	1	experiment	7	experiment_noU	1683	1	91	IEV	POS	1						91	1	20	0	0	0	0	6	41	0	6	28	2	1721	5797	524	1
6.6.1	mac	0	2023-02-17	15:47:57	Tanya	1	1	experiment	7	dispFeedback_noU	1000	1	91	IEV	POS	1	60	0.6815993662961379318	40.9320032202496690843	60	0.6349949344608455393	91	1	20	0	0	0	0	6	41	1	6	28	0	2483	5857	528	4
6.6.1	mac	0	2023-02-17	15:47:57	Tanya	1	1	experiment	7	experiment_noU	525	1	38	IEV	POS	1						38	1	20	0	0	0	0	6	41	1	6	28	0	2483	5857	528	4
6.6.1	mac	0	2023-02-17	15:47:57	Tanya	1	1	experiment	7	dispFeedback_noU	1000	1	38	IEV	POS	1	116	0.4443404151542446612	51.7641988606880971702	1	0.9962229868388322584	38	1	20	0	0	0	0	6	41	2	6	28	0	3675	5858	529	1
6.6.1	mac	0	2023-02-17	15:47:57	Tanya	1	1	experiment	7	experiment_noU	710	1	29	IEV	POS	1						29	1	20	0	0	0	0	6	41	2	6	28	0	3675	5858	529	1
6.6.1	mac	0	2023-02-17	15:47:57	Tanya	1	1	experiment	7	dispFeedback_noU	1000	1	29	IEV	POS	1	94	0.4996546372443466666	46.9810122112816017648	1	0.9950321803323534109	29	1	20	0	0	0	0	6	41	3	6	28	0	3410	5859	530	1
6.6.1	mac	0	2023-02-17	15:47:57	Tanya	1	1	experiment	7	experiment_noU	600	1	87	IEV	POS	1						87	1	20	0	0	0	0	6	41	3	6	28	0	3410	5859	530	1
6.6.1	mac	0	2023-02-17	15:47:57	Tanya	1	1	experiment	7	dispFeedback_noU	1000	1	87	IEV	POS	1	30	0.8532567942941541306	25.6595954925221469978	30	0.1874879620008841064	87	1	20	0	0	0	0	6	41	4	6	28	0	1200	5889	532	2
6.6.1	mac	0	2023-02-17	15:47:57	Tanya	1	1	experiment	7	experiment_noU	655	1	18	IEV	POS	1						18	1	20	0	0	0	0	6	41	4	6	28	0	1200	5889	532	2
6.6.1	mac	0	2023-02-17	15:47:57	Tanya	1	1	experiment	7	dispFeedback_noU	1000	1	18	IEV	POS	1	71	0.621822127902488031	43.8958374412143967902	1	0.8776302188349958122	18	1	20	0	0	0	0	6	41	5	6	28	0	2805	5890	533	1
6.6.1	mac	0	2023-02-17	15:47:57	Tanya	1	1	experiment	7	experiment_noU	738	1	83	IEV	POS	1						83	1	20	0	0	0	0	6	41	5	6	28	0	2805	5890	533	1
6.6.1	mac	0	2023-02-17	15:47:57	Tanya	1	1	experiment	7	dispFeedback_noU	1000	1	83	IEV	POS	1	28	0.8583000124404350784	24.190644284192220681	28	0.1233838999465536046	83	1	20	0	0	0	0	6	41	6	6	28	1	1138	5918	535	2
6.6.1	mac	0	2023-02-17	15:47:57	Tanya	1	1	experiment	7	experiment_U	3300	1	7	IEV	POS	1						7	1	20	0	0	0	0	6	41	6	6	28	1	1138	5918	535	2
6.6.1	mac	0	2023-02-17	15:47:57	Tanya	1	1	experiment	7	dispFeedback_U	1000	1	7	IEV	POS	1	285	0.2031395259764656458	57.8327629075979956497	285	0.0628475879931001957	7	1	20	1	0	1	0	6	41	7	6	28	1	4900	6203	545	10
6.6.1	mac	0	2023-02-17	15:47:57	Tanya	1	1	experiment	7	experiment_U	3486	1	4	IEV	POS	1						4	1	20	1	0	1	0	6	41	7	6	28	1	4900	6203	545	10
6.6.1	mac	0	2023-02-17	15:47:57	Tanya	1	1	experiment	7	dispFeedback_U	1000	1	4	IEV	POS	1	291	0.1968155326189666987	57.3512780664685379861	1	0.6865512346119040377	4	1	20	2	0	2	0	6	41	8	6	28	1	4936	6204	546	1
6.6.1	mac	0	2023-02-17	15:47:57	Tanya	1	1	experiment	7	experiment_U	1392	1	44	IEV	POS	1						44	1	20	2	0	2	0	6	41	8	6	28	1	4936	6204	546	1
6.6.1	mac	0	2023-02-17	15:47:57	Tanya	1	1	experiment	7	dispFeedback_U	1000	1	44	IEV	POS	1	264	0.2134465835354125152	56.3669950988267132175	264	0.1216132093969763267	44	1	20	3	0	3	0	6	41	9	6	28	1	4842	6468	556	10
6.6.1	mac	0	2023-02-17	15:47:57	Tanya	1	1	experiment	7	experiment_U	2855	1	16	IEV	POS	1						16	1	20	3	0	3	0	6	41	9	6	28	1	4842	6468	556	10
6.6.1	mac	0	2023-02-17	15:47:57	Tanya	1	1	experiment	7	dispFeedback_U	1000	1	16	IEV	POS	1	286	0.2022578027085460139	57.8481630207613051198	1	0.4781889667450890391	16	1	20	4	0	4	0	6	41	10	6	28	0	4905	6469	557	1
6.6.1	mac	0	2023-02-17	15:47:57	Tanya	1	1	experiment	7	experiment_noU	1250	1	68	IEV	POS	1						68	1	20	4	0	4	0	6	41	10	6	28	0	4905	6469	557	1
6.6.1	mac	0	2023-02-17	15:47:57	Tanya	1	1	experiment	7	dispFeedback_noU	1000	1	68	IEV	POS	1	21	0.8747665961745207941	18.4998586354694687373	21	0.4804883984570597066	68	1	20	4	0	4	0	6	41	11	6	28	0	900	6490	558	1
6.6.1	mac	0	2023-02-17	15:47:57	Tanya	1	1	experiment	7	experiment_noU	783	1	15	IEV	POS	1						15	1	20	4	0	4	0	6	41	11	6	28	0	900	6490	558	1
6.6.1	mac	0	2023-02-17	15:47:57	Tanya	1	1	experiment	7	dispFeedback_noU	1000	1	15	IEV	POS	1	64	0.6260552256324720677	39.8973255934540702583	1	0.7324396110448146979	15	1	20	4	0	4	0	6	41	12	6	28	0	2783	6491	559	1
6.6.1	mac	0	2023-02-17	15:47:57	Tanya	1	1	experiment	7	experiment_noU	1869	1	22	IEV	POS	1						22	1	20	4	0	4	0	6	41	12	6	28	0	2783	6491	559	1
6.6.1	mac	0	2023-02-17	15:47:57	Tanya	1	1	experiment	7	dispFeedback_noU	1000	1	22	IEV	POS	1	165	0.3323102968719975348	54.80135209451261602	1	0.9336411575632265203	22	1	20	4	0	4	0	6	41	13	6	28	0	4219	6492	560	1
6.6.1	mac	0	2023-02-17	15:47:57	Tanya	1	1	experiment	7	experiment_noU	1391	1	33	IEV	POS	1						33	1	20	4	0	4	0	6	41	13	6	28	0	4219	6492	560	1
6.6.1	mac	0	2023-02-17	15:47:57	Tanya	1	1	experiment	7	dispFeedback_noU	1000	1	33	IEV	POS	1	168	0.317916295297656748	53.3100500775301142653	1	0.3916745705976324432	33	1	20	4	0	4	0	6	41	14	6	28	0	4291	6493	561	1
6.6.1	mac	0	2023-02-17	15:47:57	Tanya	1	1	experiment	7	experiment_noU	774	1	22	IEV	POS	1						22	1	20	4	0	4	0	6	41	14	6	28	0	4291	6493	561	1
6.6.1	mac	0	2023-02-17	15:47:57	Tanya	1	1	experiment	7	dispFeedback_noU	1000	1	22	IEV	POS	1	78	0.5585358741419153006	43.3466923981950245093	78	0.2012245941910018598	22	1	20	4	0	4	0	6	41	15	6	28	0	3124	6571	567	6
6.6.1	mac	0	2023-02-17	15:47:57	Tanya	1	1	experiment	7	experiment_noU	1382	1	10	IEV	POS	1						10	1	20	4	0	4	0	6	41	15	6	28	0	3124	6571	567	6
6.6.1	mac	0	2023-02-17	15:47:57	Tanya	1	1	experiment	7	dispFeedback_noU	1000	1	10	IEV	POS	1	78	0.5569103540144062503	43.4382722793813016438	78	0.2286699270430649356	10	1	20	4	0	4	0	6	41	16	6	28	0	3132	6649	573	6
6.6.1	mac	0	2023-02-17	15:47:57	Tanya	1	1	experiment	7	experiment_noU	541	1	74	IEV	POS	1						74	1	20	4	0	4	0	6	41	16	6	28	0	3132	6649	573	6
6.6.1	mac	0	2023-02-17	15:47:57	Tanya	1	1	experiment	7	dispFeedback_noU	1000	1	74	IEV	POS	1	13	0.8928503505402011209	11.9164172292213930149	13	0.7361660606079190039	74	1	20	4	0	4	0	6	41	17	6	28	0	491	6662	574	1
6.6.1	mac	0	2023-02-17	15:47:57	Tanya	1	1	experiment	7	experiment_noU	2357	1	90	IEV	POS	1						90	1	20	4	0	4	0	6	41	17	6	28	0	491	6662	574	1
6.6.1	mac	0	2023-02-17	15:47:57	Tanya	1	1	experiment	7	dispFeedback_noU	1000	1	90	IEV	POS	1	76	0.561984923103074907	42.5894149990177268705	76	0.0998962931567561607	90	1	20	4	0	4	0	6	41	18	6	28	0	3107	6738	580	6
6.6.1	mac	0	2023-02-17	15:47:57	Tanya	1	1	experiment	7	experiment_noU	3318	1	73	IEV	POS	1						73	1	20	4	0	4	0	6	41	18	6	28	0	3107	6738	580	6
6.6.1	mac	0	2023-02-17	15:47:57	Tanya	1	1	experiment	7	dispFeedback_noU	1000	1	73	IEV	POS	1	89	0.5393449187894270302	48.1847051040987111037	1	0.9985366698816736664	73	1	20	4	0	4	0	6	41	19	6	28	0	3218	6739	581	1
6.6.1	mac	0	2023-02-17	15:47:57	Tanya	1	1	experiment	7	experiment_noU	1438	1	83	IEV	POS	1						83	1	20	4	0	4	0	6	41	19	6	28	0	3218	6739	581	1
6.6.1	mac	0	2023-02-17	15:47:57	Tanya	1	1	experiment	7	dispFeedback_noU	1000	1	83	IEV	POS	1	35	0.783197990922864129	27.1770660967122132945	35	0.2399684836249725284	83	1	20	4	0	4	0	6	41	20	6	28	0	1838	6774	584	3
6.6.1	mac	0	2023-02-17	15:47:57	Tanya	1	1	experiment	7	experiment_noU	3715	1	68	IEV	POS	1						68	1	20	4	0	4	0	6	41	20	6	28	0	1838	6774	584	3
6.6.1	mac	0	2023-02-17	15:47:57	Tanya	1	1	experiment	7	dispFeedback_noU	1000	1	68	IEV	POS	1	90	0.5090030319862419717	46.0082445708878751134	1	0.8567295691130518698	68	1	20	4	0	4	0	6	41	21	6	28	0	3365	6775	585	1
6.6.1	mac	0	2023-02-17	15:47:57	Tanya	1	1	experiment	7	experiment_noU	1533	1	9	IEV	POS	1						9	1	20	4	0	4	0	6	41	21	6	28	0	3365	6775	585	1
6.6.1	mac	0	2023-02-17	15:47:57	Tanya	1	1	experiment	7	dispFeedback_noU	1000	1	9	IEV	POS	1	88	0.5362654828658091066	47.2573808680384956915	1	0.7610392632803505419	9	1	20	4	0	4	0	6	41	22	6	28	0	3233	6776	586	1
6.6.1	mac	0	2023-02-17	15:47:57	Tanya	1	1	experiment	7	experiment_noU	1039	1	17	IEV	POS	1						17	1	20	4	0	4	0	6	41	22	6	28	0	3233	6776	586	1
6.6.1	mac	0	2023-02-17	15:47:57	Tanya	1	1	experiment	7	dispFeedback_noU	1000	1	17	IEV	POS	1	81	0.5554867717267668592	45.1846940578855722492	1	0.6576124440547107541	17	1	20	4	0	4	0	6	41	23	6	28	0	3139	6777	587	1
6.6.1	mac	0	2023-02-17	15:47:57	Tanya	1	1	experiment	7	experiment_noU	1924	1	1	IEV	POS	1						1	1	20	4	0	4	0	6	41	23	6	28	0	3139	6777	587	1
6.6.1	mac	0	2023-02-17	15:47:57	Tanya	1	1	experiment	7	dispFeedback_noU	1000	1	1	IEV	POS	1	82	0.5381136625566571574	43.937977106914850367	1	0.5922760033496367038	1	1	20	4	0	4	0	6	41	24	6	28	0	3224	6778	588	1
6.6.1	mac	0	2023-02-17	15:47:57	Tanya	1	1	experiment	7	experiment_noU	933	1	96	IEV	POS	1						96	1	20	4	0	4	0	6	41	24	6	28	0	3224	6778	588	1
6.6.1	mac	0	2023-02-17	15:47:57	Tanya	1	1	experiment	7	dispFeedback_noU	1000	1	96	IEV	POS	1	45	0.762829562467869815	34.3607619283994836223	45	0.7457489284560431253	96	1	20	4	0	4	0	6	41	25	6	28	0	1983	6823	591	3
6.6.1	mac	0	2023-02-17	15:47:57	Tanya	1	1	experiment	7	experiment_noU	605	1	37	IEV	POS	1						37	1	20	4	0	4	0	6	41	25	6	28	0	1983	6823	591	3
6.6.1	mac	0	2023-02-17	15:47:57	Tanya	1	1	experiment	7	dispFeedback_noU	1000	1	37	IEV	POS	1	112	0.4380744120692325327	48.9371559638199684628	112	0.292890666120892984	37	1	20	4	0	4	0	6	41	26	6	28	0	3705	6935	599	8
6.6.1	mac	0	2023-02-17	15:47:57	Tanya	1	1	experiment	7	experiment_noU	3621	1	78	IEV	POS	1						78	1	20	4	0	4	0	6	41	26	6	28	0	3705	6935	599	8
6.6.1	mac	0	2023-02-17	15:47:57	Tanya	1	1	experiment	7	dispFeedback_noU	1000	1	78	IEV	POS	1	122	0.4243043700191290735	51.6676990099515975885	122	0.0794743395129857422	78	1	20	4	0	4	0	6	41	27	6	28	0	3771	7057	607	8
6.6.1	mac	0	2023-02-17	15:47:57	Tanya	1	1	experiment	7	experiment_noU	2274	1	6	IEV	POS	1						6	1	20	4	0	4	0	6	41	27	6	28	0	3771	7057	607	8
6.6.1	mac	0	2023-02-17	15:47:57	Tanya	1	1	experiment	7	dispFeedback_noU	1000	1	6	IEV	POS	1	129	0.4132689039599107272	53.3269309077153152998	1	0.6474278810544470408	6	1	20	4	0	4	0	6	41	28	6	28	2	3824	7058	608	1
6.6.1	mac	0	2023-02-17	15:47:57	Tanya	1	1	experiment	7	experiment_U	85	1	51	IEV	POS	1						51	1	20	4	0	4	0	6	41	28	6	28	2	3824	7058	608	1
6.6.1	mac	0	2023-02-17	15:47:57	Tanya	1	1	experiment	7	dispFeedback_U	1000	1	51	IEV	POS	1	127	0.4006017083941297297	50.9514495764151789103	1	0.7496577142154932094	51	1	20	4	0	4	1	6	41	29	6	28	2	3885	7059	609	1
6.6.1	mac	0	2023-02-17	15:47:57	Tanya	1	1	experiment	7	experiment_U	769	1	16	IEV	POS	1						16	1	20	4	0	4	1	6	41	29	6	28	2	3885	7059	609	1
6.6.1	mac	0	2023-02-17	15:47:57	Tanya	1	1	experiment	7	dispFeedback_U	1000	1	16	IEV	POS	1	66	0.6191182701813648936	40.953740235224024957	1	0.8710408510805668358	16	1	20	4	1	4	2	6	41	30	6	28	2	2819	7060	610	1
6.6.1	mac	0	2023-02-17	15:47:57	Tanya	1	1	experiment	7	experiment_U	719	1	43	IEV	POS	1						43	1	20	4	1	4	2	6	41	30	6	28	2	2819	7060	610	1
6.6.1	mac	0	2023-02-17	15:47:57	Tanya	1	1	experiment	7	dispFeedback_U	1000	1	43	IEV	POS	1	150	0.3525204218887054153	52.7731934457840310415	1	0.704202794866683579	43	1	20	4	1	4	3	6	41	31	6	28	2	4119	7061	611	1
6.6.1	mac	0	2023-02-17	15:47:57	Tanya	1	1	experiment	7	experiment_U	1169	1	66	IEV	POS	1						66	1	20	4	1	4	3	6	41	31	6	28	2	4119	7061	611	1
6.6.1	mac	0	2023-02-17	15:47:57	Tanya	1	1	experiment	7	dispFeedback_U	1000	1	66	IEV	POS	1	23	0.8842995970272853334	20.5492045457839367373	23	0.7534062265775646194	66	1	20	4	1	4	4	6	41	32	6	28	2	719	7084	612	1
6.6.1	mac	0	2023-02-17	15:47:57	Tanya	1	1	experiment	7	experiment_U	946	1	98	IEV	POS	1						98	1	20	4	1	4	4	6	41	32	6	28	2	719	7084	612	1
6.6.1	mac	0	2023-02-17	15:47:57	Tanya	1	1	experiment	7	dispFeedback_U	1000	1	98	IEV	POS	1	46	0.7459029694000909316	34.204524685199530154	46	0.3874532001529478742	98	1	20	4	1	4	5	6	41	33	6	28	2	2096	7130	615	3
6.6.1	mac	0	2023-02-17	15:47:57	Tanya	1	1	experiment	7	experiment_U	474	1	45	IEV	POS	1						45	1	20	4	1	4	5	6	41	33	6	28	2	2096	7130	615	3
6.6.1	mac	0	2023-02-17	15:47:57	Tanya	1	1	experiment	7	dispFeedback_U	1000	1	45	IEV	POS	1	135	0.3822052100934973384	51.6749886441569969975	135	0.3809672331858815486	45	1	20	4	1	4	6	6	41	34	6	28	2	3974	7265	624	9
6.6.1	mac	0	2023-02-17	15:47:57	Tanya	1	1	experiment	7	experiment_U	566	1	56	IEV	POS	1						56	1	20	4	1	4	6	6	41	34	6	28	2	3974	7265	624	9
6.6.1	mac	0	2023-02-17	15:47:57	Tanya	1	1	experiment	7	dispFeedback_U	1000	1	56	IEV	POS	1	219	0.254941976354168931	55.7854308968365870669	219	0.1108067254793845824	56	1	20	4	1	4	7	6	41	35	6	28	2	4616	7484	634	10
6.6.1	mac	0	2023-02-17	15:47:57	Tanya	1	1	experiment	7	experiment_U	1469	1	4	IEV	POS	1						4	1	20	4	1	4	7	6	41	35	6	28	2	4616	7484	634	10
6.6.1	mac	0	2023-02-17	15:47:57	Tanya	1	1	experiment	7	dispFeedback_U	1000	1	4	IEV	POS	1	68	0.5995895997827556112	40.9337298468708468135	1	0.8777920526633485876	4	1	20	4	2	4	8	6	41	36	6	28	2	2919	7485	635	1
6.6.1	mac	0	2023-02-17	15:47:57	Tanya	1	1	experiment	7	experiment_U	1791	1	17	IEV	POS	1						17	1	20	4	2	4	8	6	41	36	6	28	2	2919	7485	635	1
6.6.1	mac	0	2023-02-17	15:47:57	Tanya	1	1	experiment	7	dispFeedback_U	1000	1	17	IEV	POS	1	135	0.3993580770548883496	53.7969078377012692727	1	0.6866259776723165897	17	1	20	4	2	4	9	6	41	37	6	28	2	3891	7486	636	1
6.6.1	mac	0	2023-02-17	15:47:57	Tanya	1	1	experiment	7	experiment_U	822	1	50	IEV	POS	1						50	1	20	4	2	4	9	6	41	37	6	28	2	3891	7486	636	1
6.6.1	mac	0	2023-02-17	15:47:57	Tanya	1	1	experiment	7	dispFeedback_U	1000	1	50	IEV	POS	1	216	0.2632540563572288717	56.8804793813509306233	1	0.3882151246974745451	50	1	20	4	2	4	10	6	41	38	6	28	2	4572	7487	637	1
6.6.1	mac	0	2023-02-17	15:47:57	Tanya	1	1	experiment	7	experiment_U	836	1	80	IEV	POS	1						80	1	20	4	2	4	10	6	41	38	6	28	2	4572	7487	637	1
6.6.1	mac	0	2023-02-17	15:47:57	Tanya	1	1	experiment	7	dispFeedback_U	1000	1	80	IEV	POS	1	21	0.8622878988031011938	18.5138142953701816396	21	0.6660503469561344092	80	1	20	4	2	4	11	6	41	39	6	28	2	1086	7508	638	1
6.6.1	mac	0	2023-02-17	15:47:57	Tanya	1	1	experiment	7	experiment_U	1632	1	0	IEV	POS	1						0	1	20	4	2	4	11	6	41	39	6	28	2	1086	7508	638	1
6.6.1	mac	0	2023-02-17	15:47:57	Tanya	1	1	experiment	7	dispFeedback_U	1000	1	0	IEV	POS	1	72	0.6068578155045367684	43.5201094835065021016	72	0.0562796709258760464	0	1	20	4	3	4	12	6	41	40	6	28	2	2882	7580	643	5
6.6.1	mac	0	2023-02-17	15:47:57	Tanya	1	1	experiment	7	experiment_U	764	1	54	IEV	POS	1						54	1	20	4	3	4	12	6	41	40	6	28	2	2882	7580	643	5
6.6.1	mac	0	2023-02-17	15:47:57	Tanya	1	1	experiment	7	dispFeedback_U	1000	1	54	IEV	POS	1	244	0.2366954061822796884	57.6685595844921792263	1	0.6633971509671298117	54	1	20	4	3	4	13	6	41	41	6	28	2	4714	7581	644	1
6.6.1	mac	0	2023-02-17	15:47:57	Tanya	1	1	experiment	8	experiment_noU	748	1	45	IEV	POS	1						45	5	40	0	0	0	0	7	42	0	10	30	2	4714	7581	644	1
6.6.1	mac	0	2023-02-17	15:47:57	Tanya	1	1	experiment	8	dispFeedback_noU	1000	1	45	IEV	POS	1	164	0.3264959048529770813	53.6658902209412502771	1	0.6643233691957600717	45	5	40	0	0	0	0	7	42	1	10	30	0	4248	7582	645	1
6.6.1	mac	0	2023-02-17	15:47:57	Tanya	1	1	experiment	8	experiment_noU	796	1	70	IEV	POS	1						70	5	40	0	0	0	0	7	42	1	10	30	0	4248	7582	645	1
6.6.1	mac	0	2023-02-17	15:47:57	Tanya	1	1	experiment	8	dispFeedback_noU	1000	1	70	IEV	POS	1	17	0.8911244792127075431	14.9240126733398934533	17	0.3166789904508457987	70	5	40	0	0	0	0	7	42	2	10	30	0	546	7599	646	1
6.6.1	mac	0	2023-02-17	15:47:57	Tanya	1	1	experiment	8	experiment_noU	634	1	31	IEV	POS	1						31	5	40	0	0	0	0	7	42	2	10	30	0	546	7599	646	1
6.6.1	mac	0	2023-02-17	15:47:57	Tanya	1	1	experiment	8	dispFeedback_noU	1000	1	31	IEV	POS	1	95	0.4946602755675226226	47.2250678660687839283	95	0.0585140376488012329	31	5	40	0	0	0	0	7	42	3	10	30	0	3434	7694	653	7
6.6.1	mac	0	2023-02-17	15:47:57	Tanya	1	1	experiment	8	experiment_noU	1070	1	9	IEV	POS	1						9	5	40	0	0	0	0	7	42	3	10	30	0	3434	7694	653	7
6.6.1	mac	0	2023-02-17	15:47:57	Tanya	1	1	experiment	8	dispFeedback_noU	1000	1	9	IEV	POS	1	62	0.6285473364598557211	39.1101706238988242603	62	0.3713531478707103872	9	5	40	0	0	0	0	7	42	4	10	30	0	2770	7756	658	5
6.6.1	mac	0	2023-02-17	15:47:57	Tanya	1	1	experiment	8	experiment_noU	689	1	87	IEV	POS	1						87	5	40	0	0	0	0	7	42	4	10	30	0	2770	7756	658	5
6.6.1	mac	0	2023-02-17	15:47:57	Tanya	1	1	experiment	8	dispFeedback_noU	1000	1	87	IEV	POS	1	23	0.8454666586086430069	19.7997364083373170729	23	0.8365218238524444461	87	5	40	0	0	0	0	7	42	5	10	30	0	1289	7779	659	1
6.6.1	mac	0	2023-02-17	15:47:57	Tanya	1	1	experiment	8	experiment_noU	820	1	69	IEV	POS	1						69	5	40	0	0	0	0	7	42	5	10	30	0	1289	7779	659	1
6.6.1	mac	0	2023-02-17	15:47:57	Tanya	1	1	experiment	8	dispFeedback_noU	1000	1	69	IEV	POS	1	16	0.8919662165959167943	13.873032236586192667	16	0.4744275455536384745	69	5	40	0	0	0	0	7	42	6	10	30	0	520	7795	660	1
6.6.1	mac	0	2023-02-17	15:47:57	Tanya	1	1	experiment	8	experiment_noU	814	1	52	IEV	POS	1						52	5	40	0	0	0	0	7	42	6	10	30	0	520	7795	660	1
6.6.1	mac	0	2023-02-17	15:47:57	Tanya	1	1	experiment	8	dispFeedback_noU	1000	1	52	IEV	POS	1	229	0.2459580104000667622	56.2632058748169114892	1	0.5723280672850851181	52	5	40	0	0	0	0	7	42	7	10	30	0	4664	7796	661	1
6.6.1	mac	0	2023-02-17	15:47:57	Tanya	1	1	experiment	8	experiment_noU	781	1	19	IEV	POS	1						19	5	40	0	0	0	0	7	42	7	10	30	0	4664	7796	661	1
6.6.1	mac	0	2023-02-17	15:47:57	Tanya	1	1	experiment	8	dispFeedback_noU	1000	1	19	IEV	POS	1	79	0.5873062625419137595	46.3747058566355576659	1	0.8833549646389100563	19	5	40	0	0	0	0	7	42	8	10	30	0	2981	7797	662	1
6.6.1	mac	0	2023-02-17	15:47:57	Tanya	1	1	experiment	8	experiment_noU	1467	1	73	IEV	POS	1						73	5	40	0	0	0	0	7	42	8	10	30	0	2981	7797	662	1
6.6.1	mac	0	2023-02-17	15:47:57	Tanya	1	1	experiment	8	dispFeedback_noU	1000	1	73	IEV	POS	1	33	0.8381047006782160746	27.3796732622052481076	33	0.3773967647872392139	73	5	40	0	0	0	0	7	42	9	10	30	0	1367	7830	665	3
6.6.1	mac	0	2023-02-17	15:47:57	Tanya	1	1	experiment	8	experiment_noU	1325	1	15	IEV	POS	1						15	5	40	0	0	0	0	7	42	9	10	30	0	1367	7830	665	3
6.6.1	mac	0	2023-02-17	15:47:57	Tanya	1	1	experiment	8	dispFeedback_noU	1000	1	15	IEV	POS	1	93	0.5172920984090578767	48.1675736460044845444	1	0.7291193857624007624	15	5	40	0	0	0	0	7	42	10	10	30	1	3325	7831	666	1
6.6.1	mac	0	2023-02-17	15:47:57	Tanya	1	1	experiment	8	experiment_U	407	1	9	IEV	POS	1						9	5	40	0	0	0	0	7	42	10	10	30	1	3325	7831	666	1
6.6.1	mac	0	2023-02-17	15:47:57	Tanya	1	1	experiment	8	dispFeedback_U	1000	1	9	IEV	POS	1	47	0.744207720782894433	35.0823361845636014777	47	0.4479015193525472394	9	5	40	1	0	1	0	7	42	11	10	30	1	2107	7878	670	4
6.6.1	mac	0	2023-02-17	15:47:57	Tanya	1	1	experiment	8	experiment_U	3701	1	83	IEV	POS	1						83	5	40	1	0	1	0	7	42	11	10	30	1	2107	7878	670	4
6.6.1	mac	0	2023-02-17	15:47:57	Tanya	1	1	experiment	8	dispFeedback_U	1000	1	83	IEV	POS	1	155	0.3561827251792566429	55.1355983789853922872	155	0.2183138058097832401	83	5	40	2	0	2	0	7	42	12	10	30	1	4101	8033	680	10
6.6.1	mac	0	2023-02-17	15:47:57	Tanya	1	1	experiment	8	experiment_U	3199	1	93	IEV	POS	1						93	5	40	2	0	2	0	7	42	12	10	30	1	4101	8033	680	10
6.6.1	mac	0	2023-02-17	15:47:57	Tanya	1	1	experiment	8	dispFeedback_U	1000	1	93	IEV	POS	1	152	0.3565900781615371495	54.0540425023478547928	1	0.4224400386266503604	93	5	40	3	0	3	0	7	42	13	10	30	1	4099	8034	681	1
6.6.1	mac	0	2023-02-17	15:47:57	Tanya	1	1	experiment	8	experiment_U	429	1	87	IEV	POS	1						87	5	40	3	0	3	0	7	42	13	10	30	1	4099	8034	681	1
6.6.1	mac	0	2023-02-17	15:47:57	Tanya	1	1	experiment	8	dispFeedback_U	1000	1	87	IEV	POS	1	20	0.8664070999299633424	17.0860570423999185152	1	0.889676910799387155	87	5	40	4	0	4	0	7	42	14	10	30	0	1029	8035	682	1
6.6.1	mac	0	2023-02-17	15:47:57	Tanya	1	1	experiment	8	experiment_noU	443	1	17	IEV	POS	1						17	5	40	4	0	4	0	7	42	14	10	30	0	1029	8035	682	1
6.6.1	mac	0	2023-02-17	15:47:57	Tanya	1	1	experiment	8	dispFeedback_noU	1000	1	17	IEV	POS	1	58	0.6708438878990299337	38.9313676517686317879	58	0.1149885058670743615	17	5	40	4	0	4	0	7	42	15	10	30	0	2543	8093	686	4
6.6.1	mac	0	2023-02-17	15:47:57	Tanya	1	1	experiment	8	experiment_noU	695	1	94	IEV	POS	1						94	5	40	4	0	4	0	7	42	15	10	30	0	2543	8093	686	4
6.6.1	mac	0	2023-02-17	15:47:57	Tanya	1	1	experiment	8	dispFeedback_noU	1000	1	94	IEV	POS	1	31	0.8078317891368478332	24.7824929160603026901	31	0.1698080408782251249	94	5	40	4	0	4	0	7	42	16	10	30	0	1645	8124	688	2
6.6.1	mac	0	2023-02-17	15:47:57	Tanya	1	1	experiment	8	experiment_noU	619	1	26	IEV	POS	1						26	5	40	4	0	4	0	7	42	16	10	30	0	1645	8124	688	2
6.6.1	mac	0	2023-02-17	15:47:57	Tanya	1	1	experiment	8	dispFeedback_noU	1000	1	26	IEV	POS	1	80	0.5493728827566118911	43.8590946238286676362	80	0.3519805000051810517	26	5	40	4	0	4	0	7	42	17	10	30	0	3169	8204	694	6
6.6.1	mac	0	2023-02-17	15:47:57	Tanya	1	1	experiment	8	experiment_noU	1521	1	16	IEV	POS	1						16	5	40	4	0	4	0	7	42	17	10	30	0	3169	8204	694	6
6.6.1	mac	0	2023-02-17	15:47:57	Tanya	1	1	experiment	8	dispFeedback_noU	1000	1	16	IEV	POS	1	102	0.4660741506475200024	47.6407413759691493738	1	0.7195326184666558378	16	5	40	4	0	4	0	7	42	18	10	30	0	3571	8205	695	1
6.6.1	mac	0	2023-02-17	15:47:57	Tanya	1	1	experiment	8	experiment_noU	818	1	20	IEV	POS	1						20	5	40	4	0	4	0	7	42	18	10	30	0	3571	8205	695	1
6.6.1	mac	0	2023-02-17	15:47:57	Tanya	1	1	experiment	8	dispFeedback_noU	1000	1	20	IEV	POS	1	74	0.5698696614852646336	42.1300542636691943699	74	0.2773515901708397124	20	5	40	4	0	4	0	7	42	19	10	30	0	3068	8279	700	5
6.6.1	mac	0	2023-02-17	15:47:57	Tanya	1	1	experiment	8	experiment_noU	992	1	46	IEV	POS	1						46	5	40	4	0	4	0	7	42	19	10	30	0	3068	8279	700	5
6.6.1	mac	0	2023-02-17	15:47:57	Tanya	1	1	experiment	8	dispFeedback_noU	1000	1	46	IEV	POS	1	206	0.2689623547405678994	55.4085126849099793844	1	0.3082690628497556373	46	5	40	4	0	4	0	7	42	20	10	30	0	4542	8280	701	1
6.6.1	mac	0	2023-02-17	15:47:57	Tanya	1	1	experiment	8	experiment_noU	870	1	29	IEV	POS	1						29	5	40	4	0	4	0	7	42	20	10	30	0	4542	8280	701	1
6.6.1	mac	0	2023-02-17	15:47:57	Tanya	1	1	experiment	8	dispFeedback_noU	1000	1	29	IEV	POS	1	105	0.4662831040312173658	49.0296211457139676781	105	0.3284797159322723203	29	5	40	4	0	4	0	7	42	21	10	30	0	3570	8385	709	8
6.6.1	mac	0	2023-02-17	15:47:57	Tanya	1	1	experiment	8	experiment_noU	866	1	52	IEV	POS	1						52	5	40	4	0	4	0	7	42	21	10	30	0	3570	8385	709	8
6.6.1	mac	0	2023-02-17	15:47:57	Tanya	1	1	experiment	8	dispFeedback_noU	1000	1	52	IEV	POS	1	241	0.2363269722187143485	56.9663977848340081778	241	0.099294422450311115	52	5	40	4	0	4	0	7	42	22	10	30	0	4716	8626	719	10
6.6.1	mac	0	2023-02-17	15:47:57	Tanya	1	1	experiment	8	experiment_noU	1102	1	72	IEV	POS	1						72	5	40	4	0	4	0	7	42	22	10	30	0	4716	8626	719	10
6.6.1	mac	0	2023-02-17	15:47:57	Tanya	1	1	experiment	8	dispFeedback_noU	1000	1	72	IEV	POS	1	23	0.8715563543106648048	19.8376852279242825716	23	0.2258484333813768896	72	5	40	4	0	4	0	7	42	23	10	30	0	952	8649	720	1
6.6.1	mac	0	2023-02-17	15:47:57	Tanya	1	1	experiment	8	experiment_noU	1119	1	87	IEV	POS	1						87	5	40	4	0	4	0	7	42	23	10	30	0	952	8649	720	1
6.6.1	mac	0	2023-02-17	15:47:57	Tanya	1	1	experiment	8	dispFeedback_noU	1000	1	87	IEV	POS	1	32	0.7987293025231085863	25.6908504949635414505	1	0.830182486174204981	87	5	40	4	0	4	0	7	42	24	10	30	0	1719	8650	721	1
6.6.1	mac	0	2023-02-17	15:47:57	Tanya	1	1	experiment	8	experiment_noU	1793	1	88	IEV	POS	1						88	5	40	4	0	4	0	7	42	24	10	30	0	1719	8650	721	1
6.6.1	mac	0	2023-02-17	15:47:57	Tanya	1	1	experiment	8	dispFeedback_noU	1000	1	88	IEV	POS	1	49	0.688661666662716776	33.5873655208264096927	49	0.612796987083926048	88	5	40	4	0	4	0	7	42	25	10	30	0	2443	8699	725	4
6.6.1	mac	0	2023-02-17	15:47:57	Tanya	1	1	experiment	8	experiment_noU	713	1	94	IEV	POS	1						94	5	40	4	0	4	0	7	42	25	10	30	0	2443	8699	725	4
6.6.1	mac	0	2023-02-17	15:47:57	Tanya	1	1	experiment	8	dispFeedback_noU	1000	1	94	IEV	POS	1	32	0.8056574180141867769	25.807853407677630031	32	0.6417475805249408527	94	5	40	4	0	4	0	7	42	26	10	30	0	1663	8731	727	2
6.6.1	mac	0	2023-02-17	15:47:57	Tanya	1	1	experiment	8	experiment_noU	459	1	41	IEV	POS	1						41	5	40	4	0	4	0	7	42	26	10	30	0	1663	8731	727	2
6.6.1	mac	0	2023-02-17	15:47:57	Tanya	1	1	experiment	8	dispFeedback_noU	1000	1	41	IEV	POS	1	119	0.4268060438676758994	50.7173413924119245166	1	0.8369787493341087625	41	5	40	4	0	4	0	7	42	27	10	30	0	3759	8732	728	1
6.6.1	mac	0	2023-02-17	15:47:57	Tanya	1	1	experiment	8	experiment_noU	582	1	10	IEV	POS	1						10	5	40	4	0	4	0	7	42	27	10	30	0	3759	8732	728	1
6.6.1	mac	0	2023-02-17	15:47:57	Tanya	1	1	experiment	8	dispFeedback_noU	1000	1	10	IEV	POS	1	49	0.7077826435723517662	34.9464688969756025472	49	0.364678991344915493	10	5	40	4	0	4	0	7	42	28	10	30	0	2332	8781	732	4
6.6.1	mac	0	2023-02-17	15:47:57	Tanya	1	1	experiment	8	experiment_noU	1486	1	20	IEV	POS	1						20	5	40	4	0	4	0	7	42	28	10	30	0	2332	8781	732	4
6.6.1	mac	0	2023-02-17	15:47:57	Tanya	1	1	experiment	8	dispFeedback_noU	1000	1	20	IEV	POS	1	121	0.4316035575218378217	52.2469044294775173398	121	0.0452960098733417721	20	5	40	4	0	4	0	7	42	29	10	30	0	3736	8902	740	8
6.6.1	mac	0	2023-02-17	15:47:57	Tanya	1	1	experiment	8	experiment_noU	1040	1	61	IEV	POS	1						61	5	40	4	0	4	0	7	42	29	10	30	0	3736	8902	740	8
6.6.1	mac	0	2023-02-17	15:47:57	Tanya	1	1	experiment	8	dispFeedback_noU	1000	1	61	IEV	POS	1	16	0.896555799111980245	14.7420596140389239537	16	0.6484153248948080206	61	5	40	4	0	4	0	7	42	30	10	30	2	340	8918	741	1
6.6.1	mac	0	2023-02-17	15:47:57	Tanya	1	1	experiment	8	experiment_U	614	1	1	IEV	POS	1						1	5	40	4	0	4	0	7	42	30	10	30	2	340	8918	741	1
6.6.1	mac	0	2023-02-17	15:47:57	Tanya	1	1	experiment	8	dispFeedback_U	1000	1	1	IEV	POS	1	40	0.7727158723213708447	31.2306149594257185242	40	0.3933158121987515576	1	5	40	4	1	4	1	7	42	31	10	30	2	1914	8958	744	3
6.6.1	mac	0	2023-02-17	15:47:57	Tanya	1	1	experiment	8	experiment_U	860	1	12	IEV	POS	1						12	5	40	4	1	4	1	7	42	31	10	30	2	1914	8958	744	3
6.6.1	mac	0	2023-02-17	15:47:57	Tanya	1	1	experiment	8	dispFeedback_U	1000	1	12	IEV	POS	1	63	0.6399569426978404252	40.2821012072902817636	63	0.0556268573402489697	12	5	40	4	2	4	2	7	42	32	10	30	2	2710	9021	749	5
6.6.1	mac	0	2023-02-17	15:47:57	Tanya	1	1	experiment	8	experiment_U	1289	1	71	IEV	POS	1						71	5	40	4	2	4	2	7	42	32	10	30	2	2710	9021	749	5
6.6.1	mac	0	2023-02-17	15:47:57	Tanya	1	1	experiment	8	dispFeedback_U	1000	1	71	IEV	POS	1	23	0.8620638075070758966	19.405904363431240256	23	0.0718463047109186431	71	5	40	4	3	4	3	7	42	33	10	30	2	1089	9044	750	1
6.6.1	mac	0	2023-02-17	15:47:57	Tanya	1	1	experiment	8	experiment_U	1604	1	16	IEV	POS	1						16	5	40	4	3	4	3	7	42	33	10	30	2	1089	9044	750	1
6.6.1	mac	0	2023-02-17	15:47:57	Tanya	1	1	experiment	8	dispFeedback_U	1000	1	16	IEV	POS	1	113	0.448728207888933639	50.6967265962427191539	1	0.8838903135349718276	16	5	40	4	4	4	4	7	42	34	10	30	0	3654	9045	751	1
6.6.1	mac	0	2023-02-17	15:47:57	Tanya	1	1	experiment	8	experiment_noU	689	1	99	IEV	POS	1						99	5	40	4	4	4	4	7	42	34	10	30	0	3654	9045	751	1
6.6.1	mac	0	2023-02-17	15:47:57	Tanya	1	1	experiment	8	dispFeedback_noU	1000	1	99	IEV	POS	1	38	0.7762115475389074204	29.3744985998816794392	38	0.1619013722897277574	99	5	40	4	4	4	4	7	42	35	10	30	0	1889	9083	754	3
6.6.1	mac	0	2023-02-17	15:47:57	Tanya	1	1	experiment	8	experiment_noU	771	1	75	IEV	POS	1						75	5	40	4	4	4	4	7	42	35	10	30	0	1889	9083	754	3
6.6.1	mac	0	2023-02-17	15:47:57	Tanya	1	1	experiment	8	dispFeedback_noU	1000	1	75	IEV	POS	1	23	0.8818176811658455794	20.0621023302991261517	23	0.1043350445349549571	75	5	40	4	4	4	4	7	42	36	10	30	0	771	9106	755	1
6.6.1	mac	0	2023-02-17	15:47:57	Tanya	1	1	experiment	8	experiment_noU	644	1	8	IEV	POS	1						8	5	40	4	4	4	4	7	42	36	10	30	0	771	9106	755	1
6.6.1	mac	0	2023-02-17	15:47:57	Tanya	1	1	experiment	8	dispFeedback_noU	1000	1	8	IEV	POS	1	49	0.7141603728482176505	35.1812434452393674178	49	0.5251538307697404262	8	5	40	4	4	4	4	7	42	37	10	30	0	2294	9155	759	4
6.6.1	mac	0	2023-02-17	15:47:57	Tanya	1	1	experiment	8	experiment_noU	1384	1	68	IEV	POS	1						68	5	40	4	4	4	4	7	42	37	10	30	0	2294	9155	759	4
6.6.1	mac	0	2023-02-17	15:47:57	Tanya	1	1	experiment	8	dispFeedback_noU	1000	1	68	IEV	POS	1	20	0.8660562735239273335	17.1349409616010888158	20	0.1325356201577315984	68	5	40	4	4	4	4	7	42	38	10	30	0	1034	9175	760	1
6.6.1	mac	0	2023-02-17	15:47:57	Tanya	1	1	experiment	8	experiment_noU	1294	1	98	IEV	POS	1						98	5	40	4	4	4	4	7	42	38	10	30	0	1034	9175	760	1
6.6.1	mac	0	2023-02-17	15:47:57	Tanya	1	1	experiment	8	dispFeedback_noU	1000	1	98	IEV	POS	1	53	0.6884861892502982528	36.3545411149919175386	1	0.6982670709719571711	98	5	40	4	4	4	4	7	42	39	10	30	0	2444	9176	761	1
6.6.1	mac	0	2023-02-17	15:47:57	Tanya	1	1	experiment	8	experiment_noU	937	1	17	IEV	POS	1						17	5	40	4	4	4	4	7	42	39	10	30	0	2444	9176	761	1
6.6.1	mac	0	2023-02-17	15:47:57	Tanya	1	1	experiment	8	dispFeedback_noU	1000	1	17	IEV	POS	1	75	0.5761078462256676858	43.4899392191422649034	1	0.909127556930558689	17	5	40	4	4	4	4	7	42	40	10	30	0	3037	9177	762	1
6.6.1	mac	0	2023-02-17	15:47:57	Tanya	1	1	experiment	8	experiment_noU	1585	1	18	IEV	POS	1						18	5	40	4	4	4	4	7	42	40	10	30	0	3037	9177	762	1
6.6.1	mac	0	2023-02-17	15:47:57	Tanya	1	1	experiment	8	dispFeedback_noU	1000	1	18	IEV	POS	1	120	0.4318122171371078788	51.8073136293202054503	1	0.5470101264182035683	18	5	40	4	4	4	4	7	42	41	10	30	0	3735	9178	763	1
6.6.1	mac	0	2023-02-17	15:47:57	Tanya	1	1	experiment	8	experiment_noU	654	1	90	IEV	POS	1						90	5	40	4	4	4	4	7	42	41	10	30	0	3735	9178	763	1
6.6.1	mac	0	2023-02-17	15:47:57	Tanya	1	1	experiment	8	dispFeedback_noU	1000	1	90	IEV	POS	1	29	0.8344380146389944741	24.4362651384263713794	29	0.6407726073266875044	90	5	40	4	4	4	4	7	42	42	10	30	0	1404	9207	765	2
6.6.1	mac	0	2023-02-17	15:47:57	Tanya	1	1	endscreen	10	endscreen	5000	1	90	IEV	POS	1						90	5	40	4	4	4	4	7	42	42	10	30	0	1404	9207	765	
