build,computer.platform,computer.touch,date,time,subject,group,sessionid,blockcode,blocknum,trialcode,latency,randStart,startPos,scrfunc,rtvspos,randStart,mag,freq,ev,inc,rng,startPos,fogPos1,fogPos2,chooseUncertainty1,chooseUncertainty2,uncertaintyCount1,uncertaintyCount2,blockCount,ntrials,trialCount,uncertaintyStart1,uncertaintyStart2,uncertainty_block,rt_shifted,totalPoints,totalEarnings,Earnings
6.6.1,mac,0,2/15/23,16:20:58,12345,1,1,instructions,1,instructions1,720,1,75,IEV,POS,1,,,,,,75,0,0,0,0,0,0,0,10,0,0,0,0,,0,0,
6.6.1,mac,0,2/15/23,16:20:58,12345,1,1,instructions,1,displayGoodJob,631,1,75,IEV,POS,1,,,,,,75,0,0,0,0,0,0,0,10,0,0,0,0,,0,0,
6.6.1,mac,0,2/15/23,16:20:58,12345,1,1,instructions,1,feedback2_5,3000,1,75,IEV,POS,1,,,,,,75,0,0,0,0,0,0,0,10,0,0,0,0,,0,0,0
6.6.1,mac,0,2/15/23,16:20:58,12345,1,1,instructions,1,instructions3,1153,1,75,IEV,POS,1,,,,,,75,0,0,0,0,0,0,0,10,0,0,0,0,,0,0,0
6.6.1,mac,0,2/15/23,16:20:58,12345,1,1,instructions,1,instructions4,1071,1,75,IEV,POS,1,,,,,,75,0,0,0,0,0,0,0,10,0,0,0,0,,0,0,0
6.6.1,mac,0,2/15/23,16:20:58,12345,1,1,instructions,1,sampleResponse,3000,1,75,IEV,POS,1,,,,,,75,0,0,0,0,0,0,0,10,0,0,0,0,1071,0,0,0
6.6.1,mac,0,2/15/23,16:20:58,12345,1,1,instructions,1,instructions4,2945,1,75,IEV,POS,1,,,,,,75,0,0,0,0,0,0,0,10,0,0,0,0,1071,0,0,0
6.6.1,mac,0,2/15/23,16:20:58,12345,1,1,instructions,1,sampleResponse,3000,1,75,IEV,POS,1,,,,,,75,0,0,0,0,0,0,0,10,0,0,0,0,2945,0,0,0
6.6.1,mac,0,2/15/23,16:20:58,12345,1,1,instructions,1,instructions5,1301,1,75,IEV,POS,1,,,,,,75,0,0,0,0,0,0,0,10,0,0,0,0,2945,0,0,0
6.6.1,mac,0,2/15/23,16:20:58,12345,1,1,instructions,1,countdown,1000,1,75,IEV,POS,1,,,,,,75,0,0,0,0,0,0,0,10,0,0,0,0,2945,0,0,0
6.6.1,mac,0,2/15/23,16:20:58,12345,1,1,experiment,2,experiment_noU,683,1,87,IEV,POS,1,,,,,,87,5,35,0,0,0,0,1,35,0,12,25,0,2945,0,0,0
6.6.1,mac,0,2/15/23,16:20:58,12345,1,1,experiment,2,dispFeedback_noU,1000,1,87,IEV,POS,1,26,0.846012275,22.27152042,26,0.833607205,87,5,35,0,0,0,0,1,35,1,12,25,0,1283,26,2,2
6.6.1,mac,0,2/15/23,16:20:58,12345,1,1,experiment,2,experiment_noU,430,1,68,IEV,POS,1,,,,,,68,5,35,0,0,0,0,1,35,1,12,25,0,1283,26,2,2
6.6.1,mac,0,2/15/23,16:20:58,12345,1,1,experiment,2,dispFeedback_noU,1000,1,68,IEV,POS,1,22,0.899732845,19.51232947,22,0.555667974,68,5,35,0,0,0,0,1,35,2,12,25,0,80,48,3,1
6.6.1,mac,0,2/15/23,16:20:58,12345,1,1,experiment,2,experiment_noU,3562,1,94,IEV,POS,1,,,,,,94,5,35,0,0,0,0,1,35,2,12,25,0,80,48,3,1
6.6.1,mac,0,2/15/23,16:20:58,12345,1,1,experiment,2,dispFeedback_noU,1000,1,94,IEV,POS,1,204,0.274703051,56.07293139,1,0.275042226,94,5,35,0,0,0,0,1,35,3,12,25,0,4512,49,4,1
6.6.1,mac,0,2/15/23,16:20:58,12345,1,1,experiment,2,experiment_noU,2746,1,28,IEV,POS,1,,,,,,28,5,35,0,0,0,0,1,35,3,12,25,0,4512,49,4,1
6.6.1,mac,0,2/15/23,16:20:58,12345,1,1,experiment,2,dispFeedback_noU,1000,1,28,IEV,POS,1,16,0.895353153,14.09545756,16,0.299255365,28,5,35,0,0,0,0,1,35,4,12,25,0,396,65,5,1
6.6.1,mac,0,2/15/23,16:20:58,12345,1,1,experiment,2,experiment_noU,1753,1,95,IEV,POS,1,,,,,,95,5,35,0,0,0,0,1,35,4,12,25,0,396,65,5,1
6.6.1,mac,0,2/15/23,16:20:58,12345,1,1,experiment,2,dispFeedback_noU,1000,1,95,IEV,POS,1,61,0.631795657,38.26718009,1,0.852451332,95,5,35,0,0,0,0,1,35,5,12,25,0,2753,66,6,1
6.6.1,mac,0,2/15/23,16:20:58,12345,1,1,experiment,2,experiment_noU,1282,1,21,IEV,POS,1,,,,,,21,5,35,0,0,0,0,1,35,5,12,25,0,2753,66,6,1
6.6.1,mac,0,2/15/23,16:20:58,12345,1,1,experiment,2,dispFeedback_noU,1000,1,21,IEV,POS,1,110,0.463775534,50.99655142,110,0.439351403,21,5,35,0,0,0,0,1,35,6,12,25,0,3582,176,14,8
6.6.1,mac,0,2/15/23,16:20:58,12345,1,1,experiment,2,experiment_noU,3084,1,86,IEV,POS,1,,,,,,86,5,35,0,0,0,0,1,35,6,12,25,0,3582,176,14,8
6.6.1,mac,0,2/15/23,16:20:58,12345,1,1,experiment,2,dispFeedback_noU,1000,1,86,IEV,POS,1,114,0.452907819,51.43045145,114,0.387384958,86,5,35,0,0,0,0,1,35,7,12,25,0,3634,290,22,8
6.6.1,mac,0,2/15/23,16:20:58,12345,1,1,experiment,2,experiment_noU,3088,1,88,IEV,POS,1,,,,,,88,5,35,0,0,0,0,1,35,7,12,25,0,3634,290,22,8
6.6.1,mac,0,2/15/23,16:20:58,12345,1,1,experiment,2,dispFeedback_noU,1000,1,88,IEV,POS,1,117,0.431186255,50.53770305,117,0.175251128,88,5,35,0,0,0,0,1,35,8,12,25,0,3738,407,30,8
6.6.1,mac,0,2/15/23,16:20:58,12345,1,1,experiment,2,experiment_noU,2435,1,8,IEV,POS,1,,,,,,8,5,35,0,0,0,0,1,35,8,12,25,0,3738,407,30,8
6.6.1,mac,0,2/15/23,16:20:58,12345,1,1,experiment,2,dispFeedback_noU,1000,1,8,IEV,POS,1,146,0.35944391,52.52468739,1,0.83352946,8,5,35,0,0,0,0,1,35,9,12,25,0,4085,408,31,1
6.6.1,mac,0,2/15/23,16:20:58,12345,1,1,experiment,2,experiment_noU,591,1,36,IEV,POS,1,,,,,,36,5,35,0,0,0,0,1,35,9,12,25,0,4085,408,31,1
6.6.1,mac,0,2/15/23,16:20:58,12345,1,1,experiment,2,dispFeedback_noU,1000,1,36,IEV,POS,1,110,0.451444895,49.68217834,110,0.416961238,36,5,35,0,0,0,0,1,35,10,12,25,0,3641,518,39,8
6.6.1,mac,0,2/15/23,16:20:58,12345,1,1,experiment,2,experiment_noU,3349,1,83,IEV,POS,1,,,,,,83,5,35,0,0,0,0,1,35,10,12,25,0,3641,518,39,8
6.6.1,mac,0,2/15/23,16:20:58,12345,1,1,experiment,2,dispFeedback_noU,1000,1,83,IEV,POS,1,123,0.428891515,52.7765069,1,0.638109842,83,5,35,0,0,0,0,1,35,11,12,25,0,3749,519,40,1
6.6.1,mac,0,2/15/23,16:20:58,12345,1,1,experiment,2,experiment_noU,1519,1,16,IEV,POS,1,,,,,,16,5,35,0,0,0,0,1,35,11,12,25,0,3749,519,40,1
6.6.1,mac,0,2/15/23,16:20:58,12345,1,1,experiment,2,dispFeedback_noU,1000,1,16,IEV,POS,1,106,0.466492055,49.48676622,106,0.208711448,16,5,35,0,0,0,0,1,35,12,12,25,1,3569,625,48,8
6.6.1,mac,0,2/15/23,16:20:58,12345,1,1,experiment,2,experiment_U,512,1,33,IEV,POS,1,,,,,,33,5,35,0,0,0,0,1,35,12,12,25,1,3569,625,48,8
6.6.1,mac,0,2/15/23,16:20:58,12345,1,1,experiment,2,dispFeedback_U,1000,1,33,IEV,POS,1,92,0.499238651,46.00296093,1,0.986677459,33,5,35,1,0,1,0,1,35,13,12,25,1,3412,626,49,1
6.6.1,mac,0,2/15/23,16:20:58,12345,1,1,experiment,2,experiment_U,1210,1,23,IEV,POS,1,,,,,,23,5,35,1,0,1,0,1,35,13,12,25,1,3412,626,49,1
6.6.1,mac,0,2/15/23,16:20:58,12345,1,1,experiment,2,dispFeedback_U,1000,1,23,IEV,POS,1,105,0.457923792,48.02618825,1,0.995888657,23,5,35,2,0,2,0,1,35,14,12,25,1,3610,627,50,1
6.6.1,mac,0,2/15/23,16:20:58,12345,1,1,experiment,2,experiment_U,2664,1,100,IEV,POS,1,,,,,,100,5,35,2,0,2,0,1,35,14,12,25,1,3610,627,50,1
6.6.1,mac,0,2/15/23,16:20:58,12345,1,1,experiment,2,dispFeedback_U,1000,1,100,IEV,POS,1,136,0.394595114,53.55888581,1,0.506428306,100,5,35,3,0,3,0,1,35,15,12,25,1,3914,628,51,1
6.6.1,mac,0,2/15/23,16:20:58,12345,1,1,experiment,2,experiment_U,509,1,43,IEV,POS,1,,,,,,43,5,35,3,0,3,0,1,35,15,12,25,1,3914,628,51,1
6.6.1,mac,0,2/15/23,16:20:58,12345,1,1,experiment,2,dispFeedback_U,1000,1,43,IEV,POS,1,135,0.395629946,53.52402099,1,0.406224762,43,5,35,4,0,4,0,1,35,16,12,25,0,3909,629,52,1
6.6.1,mac,0,2/15/23,16:20:58,12345,1,1,experiment,2,experiment_noU,328,1,55,IEV,POS,1,,,,,,55,5,35,4,0,4,0,1,35,16,12,25,0,3909,629,52,1
6.6.1,mac,0,2/15/23,16:20:58,12345,1,1,experiment,2,dispFeedback_noU,1000,1,55,IEV,POS,1,175,0.31057561,54.49040035,1,0.758264851,55,5,35,4,0,4,0,1,35,17,12,25,0,4328,630,53,1
6.6.1,mac,0,2/15/23,16:20:58,12345,1,1,experiment,2,experiment_noU,3385,1,91,IEV,POS,1,,,,,,91,5,35,4,0,4,0,1,35,17,12,25,0,4328,630,53,1
6.6.1,mac,0,2/15/23,16:20:58,12345,1,1,experiment,2,dispFeedback_noU,1000,1,91,IEV,POS,1,159,0.339154689,53.9181382,1,0.899267927,91,5,35,4,0,4,0,1,35,18,12,25,0,4185,631,54,1
6.6.1,mac,0,2/15/23,16:20:58,12345,1,1,experiment,2,experiment_noU,640,1,43,IEV,POS,1,,,,,,43,5,35,4,0,4,0,1,35,18,12,25,0,4185,631,54,1
6.6.1,mac,0,2/15/23,16:20:58,12345,1,1,experiment,2,dispFeedback_noU,1000,1,43,IEV,POS,1,143,0.368643851,52.55593757,1,0.506453423,43,5,35,4,0,4,0,1,35,19,12,25,0,4040,632,55,1
6.6.1,mac,0,2/15/23,16:20:58,12345,1,1,experiment,2,experiment_noU,341,1,56,IEV,POS,1,,,,,,56,5,35,4,0,4,0,1,35,19,12,25,0,4040,632,55,1
6.6.1,mac,0,2/15/23,16:20:58,12345,1,1,experiment,2,dispFeedback_noU,1000,1,56,IEV,POS,1,190,0.298170555,56.65060428,190,0.14427549,56,5,35,4,0,4,0,1,35,20,12,25,0,4391,822,65,10
6.6.1,mac,0,2/15/23,16:20:58,12345,1,1,experiment,2,experiment_noU,2485,1,13,IEV,POS,1,,,,,,13,5,35,4,0,4,0,1,35,20,12,25,0,4391,822,65,10
6.6.1,mac,0,2/15/23,16:20:58,12345,1,1,experiment,2,dispFeedback_noU,1000,1,13,IEV,POS,1,186,0.299346714,55.72506126,1,0.797665798,13,5,35,4,0,4,0,1,35,21,12,25,0,4385,823,66,1
6.6.1,mac,0,2/15/23,16:20:58,12345,1,1,experiment,2,experiment_noU,1248,1,23,IEV,POS,1,,,,,,23,5,35,4,0,4,0,1,35,21,12,25,0,4385,823,66,1
6.6.1,mac,0,2/15/23,16:20:58,12345,1,1,experiment,2,dispFeedback_noU,1000,1,23,IEV,POS,1,109,0.449982031,48.84535648,1,0.62743989,23,5,35,4,0,4,0,1,35,22,12,25,0,3648,824,67,1
6.6.1,mac,0,2/15/23,16:20:58,12345,1,1,experiment,2,experiment_noU,2189,1,99,IEV,POS,1,,,,,,99,5,35,4,0,4,0,1,35,22,12,25,0,3648,824,67,1
6.6.1,mac,0,2/15/23,16:20:58,12345,1,1,experiment,2,dispFeedback_noU,1000,1,99,IEV,POS,1,97,0.504020011,48.78166039,97,0.066527017,99,5,35,4,0,4,0,1,35,23,12,25,0,3389,921,74,7
6.6.1,mac,0,2/15/23,16:20:58,12345,1,1,experiment,2,experiment_noU,355,1,44,IEV,POS,1,,,,,,44,5,35,4,0,4,0,1,35,23,12,25,0,3389,921,74,7
6.6.1,mac,0,2/15/23,16:20:58,12345,1,1,experiment,2,dispFeedback_noU,1000,1,44,IEV,POS,1,124,0.417222241,51.93824396,1,0.714675947,44,5,35,4,0,4,0,1,35,24,12,25,0,3805,922,75,1
6.6.1,mac,0,2/15/23,16:20:58,12345,1,1,experiment,2,experiment_noU,4211,1,78,IEV,POS,1,,,,,,78,5,35,4,0,4,0,1,35,24,12,25,0,3805,922,75,1
6.6.1,mac,0,2/15/23,16:20:58,12345,1,1,experiment,2,dispFeedback_noU,1000,1,78,IEV,POS,1,178,0.304062581,54.0789958,178,0.257778734,78,5,35,4,0,4,0,1,35,25,12,25,2,4361,1100,85,10
6.6.1,mac,0,2/15/23,16:20:58,12345,1,1,experiment,2,experiment_U,4681,1,70,IEV,POS,1,,,,,,70,5,35,4,0,4,0,1,35,25,12,25,2,4361,1100,85,10
6.6.1,mac,0,2/15/23,16:20:58,12345,1,1,experiment,2,dispFeedback_U,1000,1,70,IEV,POS,1,193,0.290358882,55.9588347,1,0.345842992,70,5,35,4,0,4,1,1,35,26,12,25,2,4431,1101,86,1
6.6.1,mac,0,2/15/23,16:20:58,12345,1,1,experiment,2,experiment_U,4860,1,67,IEV,POS,1,,,,,,67,5,35,4,0,4,1,1,35,26,12,25,2,4431,1101,86,1
6.6.1,mac,0,2/15/23,16:20:58,12345,1,1,experiment,2,dispFeedback_U,1000,1,67,IEV,POS,1,194,0.284728141,55.24717384,194,0.159925411,67,5,35,4,0,4,2,1,35,27,12,25,2,4460,1295,96,10
6.6.1,mac,0,2/15/23,16:20:58,12345,1,1,experiment,2,experiment_U,4679,1,69,IEV,POS,1,,,,,,69,5,35,4,0,4,2,1,35,27,12,25,2,4460,1295,96,10
6.6.1,mac,0,2/15/23,16:20:58,12345,1,1,experiment,2,dispFeedback_U,1000,1,69,IEV,POS,1,184,0.300524002,55.39334343,1,0.922798054,69,5,35,4,0,4,3,1,35,28,12,25,2,4379,1296,97,1
6.6.1,mac,0,2/15/23,16:20:58,12345,1,1,experiment,2,experiment_U,4155,1,81,IEV,POS,1,,,,,,81,5,35,4,0,4,3,1,35,28,12,25,2,4379,1296,97,1
6.6.1,mac,0,2/15/23,16:20:58,12345,1,1,experiment,2,dispFeedback_U,1000,1,81,IEV,POS,1,200,0.285696958,57.21983914,200,0.010982529,81,5,35,4,0,4,4,1,35,29,12,25,2,4455,1496,107,10
6.6.1,mac,0,2/15/23,16:20:58,12345,1,1,experiment,2,experiment_U,1075,1,43,IEV,POS,1,,,,,,43,5,35,4,0,4,4,1,35,29,12,25,2,4455,1496,107,10
6.6.1,mac,0,2/15/23,16:20:58,12345,1,1,experiment,2,dispFeedback_U,1000,1,43,IEV,POS,1,196,0.28182676,55.32813665,196,0.074397577,43,5,35,4,0,4,5,1,35,30,12,25,2,4475,1692,117,10
6.6.1,mac,0,2/15/23,16:20:58,12345,1,1,experiment,2,experiment_U,3702,1,92,IEV,POS,1,,,,,,92,5,35,4,0,4,5,1,35,30,12,25,2,4475,1692,117,10
6.6.1,mac,0,2/15/23,16:20:58,12345,1,1,experiment,2,dispFeedback_U,1000,1,92,IEV,POS,1,212,0.267055953,56.52907699,1,0.732837182,92,5,35,4,0,4,6,1,35,31,12,25,2,4552,1693,118,1
6.6.1,mac,0,2/15/23,16:20:58,12345,1,1,experiment,2,experiment_U,415,1,61,IEV,POS,1,,,,,,61,5,35,4,0,4,6,1,35,31,12,25,2,4552,1693,118,1
6.6.1,mac,0,2/15/23,16:20:58,12345,1,1,experiment,2,dispFeedback_U,1000,1,61,IEV,POS,1,243,0.236511169,57.43545991,1,0.576701569,61,5,35,4,0,4,7,1,35,32,12,25,2,4715,1694,119,1
6.6.1,mac,0,2/15/23,16:20:58,12345,1,1,experiment,2,experiment_U,652,1,47,IEV,POS,1,,,,,,47,5,35,4,0,4,7,1,35,32,12,25,2,4715,1694,119,1
6.6.1,mac,0,2/15/23,16:20:58,12345,1,1,experiment,2,dispFeedback_U,1000,1,47,IEV,POS,1,169,0.325695669,54.99508788,169,0.006621848,47,5,35,4,0,4,8,1,35,33,12,25,2,4252,1863,129,10
6.6.1,mac,0,2/15/23,16:20:58,12345,1,1,experiment,2,experiment_U,320,1,59,IEV,POS,1,,,,,,59,5,35,4,0,4,8,1,35,33,12,25,2,4252,1863,129,10
6.6.1,mac,0,2/15/23,16:20:58,12345,1,1,experiment,2,dispFeedback_U,1000,1,59,IEV,POS,1,203,0.273169072,55.56496831,1,0.492837128,59,5,35,4,0,4,9,1,35,34,12,25,2,4520,1864,130,1
6.6.1,mac,0,2/15/23,16:20:58,12345,1,1,experiment,2,experiment_U,3217,1,97,IEV,POS,1,,,,,,97,5,35,4,0,4,9,1,35,34,12,25,2,4520,1864,130,1
6.6.1,mac,0,2/15/23,16:20:58,12345,1,1,experiment,2,dispFeedback_U,1000,1,97,IEV,POS,1,174,0.312753828,54.42370058,1,0.556688379,97,5,35,4,0,4,10,1,35,35,12,25,2,4317,1865,131,1
6.6.1,mac,0,2/15/23,16:20:58,12345,1,1,experiment,3,experiment_noU,1534,1,29,DEV,POS,1,,,,,,29,50,15,0,0,0,0,2,36,0,9,31,2,4317,1865,131,1
6.6.1,mac,0,2/15/23,16:20:58,12345,1,1,experiment,3,dispFeedback_noU,1000,1,29,DEV,POS,1,88,0.260985621,22.97692695,1,0.441028427,29,50,15,0,0,0,0,2,36,1,9,31,0,4234,1866,132,1
6.6.1,mac,0,2/15/23,16:20:58,12345,1,1,experiment,3,experiment_noU,495,1,47,DEV,POS,1,,,,,,47,50,15,0,0,0,0,2,36,1,9,31,0,4234,1866,132,1
6.6.1,mac,0,2/15/23,16:20:58,12345,1,1,experiment,3,dispFeedback_noU,1000,1,47,DEV,POS,1,84,0.272594961,22.83072482,1,0.687797306,47,50,15,0,0,0,0,2,36,2,9,31,0,4095,1867,133,1
6.6.1,mac,0,2/15/23,16:20:58,12345,1,1,experiment,3,experiment_noU,409,1,47,DEV,POS,1,,,,,,47,50,15,0,0,0,0,2,36,2,9,31,0,4095,1867,133,1
6.6.1,mac,0,2/15/23,16:20:58,12345,1,1,experiment,3,dispFeedback_noU,1000,1,47,DEV,POS,1,86,0.279567376,23.92322572,86,0.143178112,47,50,15,0,0,0,0,2,36,3,9,31,0,4009,1953,139,6
6.6.1,mac,0,2/15/23,16:20:58,12345,1,1,experiment,3,experiment_noU,2760,1,6,DEV,POS,1,,,,,,6,50,15,0,0,0,0,2,36,3,9,31,0,4009,1953,139,6
6.6.1,mac,0,2/15/23,16:20:58,12345,1,1,experiment,3,dispFeedback_noU,1000,1,6,DEV,POS,1,80,0.254429621,20.4031978,1,0.560704596,6,50,15,0,0,0,0,2,36,4,9,31,0,4310,1954,140,1
6.6.1,mac,0,2/15/23,16:20:58,12345,1,1,experiment,3,experiment_noU,1465,1,33,DEV,POS,1,,,,,,33,50,15,0,0,0,0,2,36,4,9,31,0,4310,1954,140,1
6.6.1,mac,0,2/15/23,16:20:58,12345,1,1,experiment,3,dispFeedback_noU,1000,1,33,DEV,POS,1,88,0.249581777,22.03834399,1,0.895449864,33,50,15,0,0,0,0,2,36,5,9,31,0,4365,1955,141,1
6.6.1,mac,0,2/15/23,16:20:58,12345,1,1,experiment,3,experiment_noU,4269,1,74,DEV,POS,1,,,,,,74,50,15,0,0,0,0,2,36,5,9,31,0,4365,1955,141,1
6.6.1,mac,0,2/15/23,16:20:58,12345,1,1,experiment,3,dispFeedback_noU,1000,1,74,DEV,POS,1,81,0.262261132,21.24540852,1,0.665991271,74,50,15,0,0,0,0,2,36,6,9,31,0,4219,1956,142,1
6.6.1,mac,0,2/15/23,16:20:58,12345,1,1,experiment,3,experiment_noU,2192,1,15,DEV,POS,1,,,,,,15,50,15,0,0,0,0,2,36,6,9,31,0,4219,1956,142,1
6.6.1,mac,0,2/15/23,16:20:58,12345,1,1,experiment,3,dispFeedback_noU,1000,1,15,DEV,POS,1,83,0.264542529,21.94474586,83,0.163534183,15,50,15,0,0,0,0,2,36,7,9,31,0,4192,2039,148,6
6.6.1,mac,0,2/15/23,16:20:58,12345,1,1,experiment,3,experiment_noU,1800,1,98,DEV,POS,1,,,,,,98,50,15,0,0,0,0,2,36,7,9,31,0,4192,2039,148,6
6.6.1,mac,0,2/15/23,16:20:58,12345,1,1,experiment,3,dispFeedback_noU,1000,1,98,DEV,POS,1,80,0.363679148,29.10336001,1,0.920806222,98,50,15,0,0,0,0,2,36,8,9,31,0,2950,2040,149,1
6.6.1,mac,0,2/15/23,16:20:58,12345,1,1,experiment,3,experiment_noU,317,1,34,DEV,POS,1,,,,,,34,50,15,0,0,0,0,2,36,8,9,31,0,2950,2040,149,1
6.6.1,mac,0,2/15/23,16:20:58,12345,1,1,experiment,3,dispFeedback_noU,1000,1,34,DEV,POS,1,87,0.337301389,29.29720744,1,0.950741647,34,50,15,0,0,0,0,2,36,9,9,31,1,3267,2041,150,1
6.6.1,mac,0,2/15/23,16:20:58,12345,1,1,experiment,3,experiment_U,1567,1,57,DEV,POS,1,,,,,,57,50,15,0,0,0,0,2,36,9,9,31,1,3267,2041,150,1
6.6.1,mac,0,2/15/23,16:20:58,12345,1,1,experiment,3,dispFeedback_U,1000,1,57,DEV,POS,1,72,0.722849099,52.1924072,72,0.17580762,57,50,15,1,0,1,0,2,36,10,9,31,1,667,2113,155,5
6.6.1,mac,0,2/15/23,16:20:58,12345,1,1,experiment,3,experiment_U,400,1,96,DEV,POS,1,,,,,,96,50,15,1,0,1,0,2,36,10,9,31,1,667,2113,155,5
6.6.1,mac,0,2/15/23,16:20:58,12345,1,1,experiment,3,dispFeedback_U,1000,1,96,DEV,POS,1,78,0.555991007,43.21842149,78,0.500116342,96,50,15,1,0,2,0,2,36,11,9,31,1,1450,2191,161,6
6.6.1,mac,0,2/15/23,16:20:58,12345,1,1,experiment,3,experiment_U,1726,1,50,DEV,POS,1,,,,,,50,50,15,1,0,2,0,2,36,11,9,31,1,1450,2191,161,6
6.6.1,mac,0,2/15/23,16:20:58,12345,1,1,experiment,3,dispFeedback_U,1000,1,50,DEV,POS,1,67,0.770714712,51.40570115,1,0.968127175,50,50,15,2,0,3,0,2,36,12,9,31,1,476,2192,162,1
6.6.1,mac,0,2/15/23,16:20:58,12345,1,1,experiment,3,experiment_U,3319,1,31,DEV,POS,1,,,,,,31,50,15,2,0,3,0,2,36,12,9,31,1,476,2192,162,1
6.6.1,mac,0,2/15/23,16:20:58,12345,1,1,experiment,3,dispFeedback_U,1000,1,31,DEV,POS,1,72,0.620503061,44.71371232,1,0.783549018,31,50,15,2,0,4,0,2,36,13,9,31,1,1119,2193,163,1
6.6.1,mac,0,2/15/23,16:20:58,12345,1,1,experiment,3,experiment_U,672,1,91,DEV,POS,1,,,,,,91,50,15,2,0,4,0,2,36,13,9,31,1,1119,2193,163,1
6.6.1,mac,0,2/15/23,16:20:58,12345,1,1,experiment,3,dispFeedback_U,1000,1,91,DEV,POS,1,77,0.552021196,42.41401689,77,0.181183889,91,50,15,2,0,5,0,2,36,14,9,31,1,1472,2270,169,6
6.6.1,mac,0,2/15/23,16:20:58,12345,1,1,experiment,3,experiment_U,1716,1,71,DEV,POS,1,,,,,,71,50,15,2,0,5,0,2,36,14,9,31,1,1472,2270,169,6
6.6.1,mac,0,2/15/23,16:20:58,12345,1,1,experiment,3,dispFeedback_U,1000,1,71,DEV,POS,1,77,0.544199636,41.92219607,1,0.600103193,71,50,15,2,0,6,0,2,36,15,9,31,1,1516,2271,170,1
6.6.1,mac,0,2/15/23,16:20:58,12345,1,1,experiment,3,experiment_U,430,1,3,DEV,POS,1,,,,,,3,50,15,2,0,6,0,2,36,15,9,31,1,1516,2271,170,1
6.6.1,mac,0,2/15/23,16:20:58,12345,1,1,experiment,3,dispFeedback_U,1000,1,3,DEV,POS,1,76,0.492866736,37.63517867,76,0.306652973,3,50,15,2,0,7,0,2,36,16,9,31,1,1830,2347,176,6
6.6.1,mac,0,2/15/23,16:20:58,12345,1,1,experiment,3,experiment_U,331,1,90,DEV,POS,1,,,,,,90,50,15,2,0,7,0,2,36,16,9,31,1,1830,2347,176,6
6.6.1,mac,0,2/15/23,16:20:58,12345,1,1,experiment,3,dispFeedback_U,1000,1,90,DEV,POS,1,70,0.628483097,43.89910614,70,0.038272741,90,50,15,2,0,8,0,2,36,17,9,31,1,1081,2417,181,5
6.6.1,mac,0,2/15/23,16:20:58,12345,1,1,experiment,3,experiment_U,349,1,4,DEV,POS,1,,,,,,4,50,15,2,0,8,0,2,36,17,9,31,1,1081,2417,181,5
6.6.1,mac,0,2/15/23,16:20:58,12345,1,1,experiment,3,dispFeedback_U,1000,1,4,DEV,POS,1,78,0.497592085,38.92984288,78,0.4937795,4,50,15,2,0,9,0,2,36,18,9,31,1,1799,2495,187,6
6.6.1,mac,0,2/15/23,16:20:58,12345,1,1,experiment,3,experiment_U,3693,1,40,DEV,POS,1,,,,,,40,50,15,2,0,9,0,2,36,18,9,31,1,1799,2495,187,6
6.6.1,mac,0,2/15/23,16:20:58,12345,1,1,experiment,3,dispFeedback_U,1000,1,40,DEV,POS,1,79,0.476254049,37.52724705,79,0.16343015,40,50,15,2,0,10,0,2,36,19,9,31,1,1943,2574,193,6
6.6.1,mac,0,2/15/23,16:20:58,12345,1,1,experiment,3,experiment_U,3911,1,25,DEV,POS,1,,,,,,25,50,15,2,0,10,0,2,36,19,9,31,1,1943,2574,193,6
6.6.1,mac,0,2/15/23,16:20:58,12345,1,1,experiment,3,dispFeedback_U,1000,1,25,DEV,POS,1,76,0.563125433,42.54365934,76,0.402797133,25,50,15,2,0,11,0,2,36,20,9,31,1,1411,2650,199,6
6.6.1,mac,0,2/15/23,16:20:58,12345,1,1,experiment,3,experiment_U,377,1,10,DEV,POS,1,,,,,,10,50,15,2,0,11,0,2,36,20,9,31,1,1411,2650,199,6
6.6.1,mac,0,2/15/23,16:20:58,12345,1,1,experiment,3,dispFeedback_U,1000,1,10,DEV,POS,1,76,0.451181405,34.50171284,1,0.947751984,10,50,15,2,0,12,0,2,36,21,9,31,1,2127,2651,200,1
6.6.1,mac,0,2/15/23,16:20:58,12345,1,1,experiment,3,experiment_U,280,1,12,DEV,POS,1,,,,,,12,50,15,2,0,12,0,2,36,21,9,31,1,2127,2651,200,1
6.6.1,mac,0,2/15/23,16:20:58,12345,1,1,experiment,3,dispFeedback_U,1000,1,12,DEV,POS,1,80,0.450792115,36.2798936,80,0.38318359,12,50,15,2,0,13,0,2,36,22,9,31,1,2130,2731,206,6
6.6.1,mac,0,2/15/23,16:20:58,12345,1,1,experiment,3,experiment_U,251,1,4,DEV,POS,1,,,,,,4,50,15,2,0,13,0,2,36,22,9,31,1,2130,2731,206,6
6.6.1,mac,0,2/15/23,16:20:58,12345,1,1,experiment,3,dispFeedback_U,1000,1,4,DEV,POS,1,82,0.513016939,41.98346245,82,0.017405318,4,50,15,2,0,14,0,2,36,23,9,31,1,1701,2813,212,6
6.6.1,mac,0,2/15/23,16:20:58,12345,1,1,experiment,3,experiment_U,1681,1,77,DEV,POS,1,,,,,,77,50,15,2,0,14,0,2,36,23,9,31,1,1701,2813,212,6
6.6.1,mac,0,2/15/23,16:20:58,12345,1,1,experiment,3,dispFeedback_U,1000,1,77,DEV,POS,1,74,0.500369548,37.10949212,74,0.234317911,77,50,15,2,0,15,0,2,36,24,9,31,1,1781,2887,217,5
6.6.1,mac,0,2/15/23,16:20:58,12345,1,1,experiment,3,experiment_U,443,1,11,DEV,POS,1,,,,,,11,50,15,2,0,15,0,2,36,24,9,31,1,1781,2887,217,5
6.6.1,mac,0,2/15/23,16:20:58,12345,1,1,experiment,3,dispFeedback_U,1000,1,11,DEV,POS,1,83,0.436563518,36.17882529,83,0.35107472,11,50,15,2,0,16,0,2,36,25,9,31,1,2243,2970,223,6
6.6.1,mac,0,2/15/23,16:20:58,12345,1,1,experiment,3,experiment_U,2231,1,73,DEV,POS,1,,,,,,73,50,15,2,0,16,0,2,36,25,9,31,1,2243,2970,223,6
6.6.1,mac,0,2/15/23,16:20:58,12345,1,1,experiment,3,dispFeedback_U,1000,1,73,DEV,POS,1,76,0.450662486,34.46840328,76,0.089232606,73,50,15,2,0,17,0,2,36,26,9,31,1,2131,3046,229,6
6.6.1,mac,0,2/15/23,16:20:58,12345,1,1,experiment,3,experiment_U,1467,1,88,DEV,POS,1,,,,,,88,50,15,2,0,17,0,2,36,26,9,31,1,2131,3046,229,6
6.6.1,mac,0,2/15/23,16:20:58,12345,1,1,experiment,3,dispFeedback_U,1000,1,88,DEV,POS,1,78,0.452483444,35.49021206,78,0.193940975,88,50,15,2,0,18,0,2,36,27,9,31,1,2117,3124,235,6
6.6.1,mac,0,2/15/23,16:20:58,12345,1,1,experiment,3,experiment_U,398,1,36,DEV,POS,1,,,,,,36,50,15,2,0,18,0,2,36,27,9,31,1,2117,3124,235,6
6.6.1,mac,0,2/15/23,16:20:58,12345,1,1,experiment,3,dispFeedback_U,1000,1,36,DEV,POS,1,85,0.323112629,27.56274011,85,0.044582733,36,50,15,2,0,19,0,2,36,28,9,31,0,3448,3209,241,6
6.6.1,mac,0,2/15/23,16:20:58,12345,1,1,experiment,3,experiment_noU,380,1,27,DEV,POS,1,,,,,,27,50,15,2,0,19,0,2,36,28,9,31,0,3448,3209,241,6
6.6.1,mac,0,2/15/23,16:20:58,12345,1,1,experiment,3,dispFeedback_noU,1000,1,27,DEV,POS,1,80,0.361066061,28.92380353,1,0.716533297,27,50,15,2,0,19,0,2,36,29,9,31,0,2980,3210,242,1
6.6.1,mac,0,2/15/23,16:20:58,12345,1,1,experiment,3,experiment_noU,1211,1,90,DEV,POS,1,,,,,,90,50,15,2,0,19,0,2,36,29,9,31,0,2980,3210,242,1
6.6.1,mac,0,2/15/23,16:20:58,12345,1,1,experiment,3,dispFeedback_noU,1000,1,90,DEV,POS,1,83,0.473694911,39.25252642,83,0.302707117,90,50,15,2,0,19,0,2,36,30,9,31,0,1961,3293,248,6
6.6.1,mac,0,2/15/23,16:20:58,12345,1,1,experiment,3,experiment_noU,1129,1,92,DEV,POS,1,,,,,,92,50,15,2,0,19,0,2,36,30,9,31,0,1961,3293,248,6
6.6.1,mac,0,2/15/23,16:20:58,12345,1,1,experiment,3,dispFeedback_noU,1000,1,92,DEV,POS,1,80,0.471159299,37.66069979,80,0.344976661,92,50,15,2,0,19,0,2,36,31,9,31,2,1979,3373,254,6
6.6.1,mac,0,2/15/23,16:20:58,12345,1,1,experiment,3,experiment_U,3066,1,63,DEV,POS,1,,,,,,63,50,15,2,0,19,0,2,36,31,9,31,2,1979,3373,254,6
6.6.1,mac,0,2/15/23,16:20:58,12345,1,1,experiment,3,dispFeedback_U,1000,1,63,DEV,POS,1,82,0.410816958,33.52358501,1,0.663698411,63,50,15,2,0,19,1,2,36,32,9,31,2,2466,3374,255,1
6.6.1,mac,0,2/15/23,16:20:58,12345,1,1,experiment,3,experiment_U,2109,1,68,DEV,POS,1,,,,,,68,50,15,2,0,19,1,2,36,32,9,31,2,2466,3374,255,1
6.6.1,mac,0,2/15/23,16:20:58,12345,1,1,experiment,3,dispFeedback_U,1000,1,68,DEV,POS,1,74,0.503798079,37.31889331,74,0.066195942,68,50,15,2,0,19,2,2,36,33,9,31,2,1759,3448,260,5
6.6.1,mac,0,2/15/23,16:20:58,12345,1,1,experiment,3,experiment_U,1544,1,77,DEV,POS,1,,,,,,77,50,15,2,0,19,2,2,36,33,9,31,2,1759,3448,260,5
6.6.1,mac,0,2/15/23,16:20:58,12345,1,1,experiment,3,dispFeedback_U,1000,1,77,DEV,POS,1,78,0.52233388,40.53109365,78,0.50783935,77,50,15,2,0,19,3,2,36,34,9,31,2,1644,3526,266,6
6.6.1,mac,0,2/15/23,16:20:58,12345,1,1,experiment,3,experiment_U,1577,1,79,DEV,POS,1,,,,,,79,50,15,2,0,19,3,2,36,34,9,31,2,1644,3526,266,6
6.6.1,mac,0,2/15/23,16:20:58,12345,1,1,experiment,3,dispFeedback_U,1000,1,79,DEV,POS,1,79,0.500990142,39.65238492,79,0.417523459,79,50,15,2,0,19,4,2,36,35,9,31,2,1777,3605,272,6
6.6.1,mac,0,2/15/23,16:20:58,12345,1,1,experiment,3,experiment_U,3079,1,48,DEV,POS,1,,,,,,48,50,15,2,0,19,4,2,36,35,9,31,2,1777,3605,272,6
6.6.1,mac,0,2/15/23,16:20:58,12345,1,1,experiment,3,dispFeedback_U,1000,1,48,DEV,POS,1,75,0.508533729,38.11579767,75,0.149758511,48,50,15,2,0,19,5,2,36,36,9,31,2,1729,3680,278,6
6.6.1,mac,0,2/15/23,16:20:58,12345,1,1,experiment,4,experiment_noU,2507,1,61,DEV,POS,1,,,,,,61,45,45,0,0,0,0,3,32,0,6,27,2,1729,3680,278,6
6.6.1,mac,0,2/15/23,16:20:58,12345,1,1,experiment,4,dispFeedback_noU,1000,1,61,DEV,POS,1,74,0.496365624,36.86429112,1,0.646383417,61,45,45,0,0,0,0,3,32,1,6,27,0,1807,3681,279,1
6.6.1,mac,0,2/15/23,16:20:58,12345,1,1,experiment,4,experiment_noU,357,1,31,DEV,POS,1,,,,,,31,45,45,0,0,0,0,3,32,1,6,27,0,1807,3681,279,1
6.6.1,mac,0,2/15/23,16:20:58,12345,1,1,experiment,4,dispFeedback_noU,1000,1,31,DEV,POS,1,87,0.346179111,29.97095839,1,0.818634148,31,45,45,0,0,0,0,3,32,2,6,27,0,3157,3682,280,1
6.6.1,mac,0,2/15/23,16:20:58,12345,1,1,experiment,4,experiment_noU,325,1,52,DEV,POS,1,,,,,,52,45,45,0,0,0,0,3,32,2,6,27,0,3157,3682,280,1
6.6.1,mac,0,2/15/23,16:20:58,12345,1,1,experiment,4,dispFeedback_noU,1000,1,52,DEV,POS,1,81,0.265969655,21.52193301,1,0.287834119,52,45,45,0,0,0,0,3,32,3,6,27,0,4175,3683,281,1
6.6.1,mac,0,2/15/23,16:20:58,12345,1,1,experiment,4,experiment_noU,359,1,39,DEV,POS,1,,,,,,39,45,45,0,0,0,0,3,32,3,6,27,0,4175,3683,281,1
6.6.1,mac,0,2/15/23,16:20:58,12345,1,1,experiment,4,dispFeedback_noU,1000,1,39,DEV,POS,1,85,0.314561419,26.60179762,1,0.549815462,39,45,45,0,0,0,0,3,32,4,6,27,0,3559,3684,282,1
6.6.1,mac,0,2/15/23,16:20:58,12345,1,1,experiment,4,experiment_noU,311,1,25,DEV,POS,1,,,,,,25,45,45,0,0,0,0,3,32,4,6,27,0,3559,3684,282,1
6.6.1,mac,0,2/15/23,16:20:58,12345,1,1,experiment,4,dispFeedback_noU,1000,1,25,DEV,POS,1,80,0.376192863,29.95870616,1,0.897162571,25,45,45,0,0,0,0,3,32,5,6,27,0,2811,3685,283,1
6.6.1,mac,0,2/15/23,16:20:58,12345,1,1,experiment,4,experiment_noU,889,1,67,DEV,POS,1,,,,,,67,45,45,0,0,0,0,3,32,5,6,27,0,2811,3685,283,1
6.6.1,mac,0,2/15/23,16:20:58,12345,1,1,experiment,4,dispFeedback_noU,1000,1,67,DEV,POS,1,68,0.767376496,52.03478643,68,0.626371088,67,45,45,0,0,0,0,3,32,6,6,27,1,489,3753,288,5
6.6.1,mac,0,2/15/23,16:20:58,12345,1,1,experiment,4,experiment_U,613,1,71,DEV,POS,1,,,,,,71,45,45,0,0,0,0,3,32,6,6,27,1,489,3753,288,5
6.6.1,mac,0,2/15/23,16:20:58,12345,1,1,experiment,4,dispFeedback_U,1000,1,71,DEV,POS,1,73,0.787051316,57.57134262,73,0.461021289,71,45,45,0,0,1,0,3,32,7,6,27,1,413,3826,293,5
6.6.1,mac,0,2/15/23,16:20:58,12345,1,1,experiment,4,experiment_U,3339,1,19,DEV,POS,1,,,,,,19,45,45,0,0,1,0,3,32,7,6,27,1,413,3826,293,5
6.6.1,mac,0,2/15/23,16:20:58,12345,1,1,experiment,4,dispFeedback_U,1000,1,19,DEV,POS,1,75,0.754644299,56.76479605,1,0.805277613,19,45,45,1,0,2,0,3,32,8,6,27,1,539,3827,294,1
6.6.1,mac,0,2/15/23,16:20:58,12345,1,1,experiment,4,experiment_U,340,1,83,DEV,POS,1,,,,,,83,45,45,1,0,2,0,3,32,8,6,27,1,539,3827,294,1
6.6.1,mac,0,2/15/23,16:20:58,12345,1,1,experiment,4,dispFeedback_U,1000,1,83,DEV,POS,1,76,0.705249619,53.40431078,1,0.867118094,83,45,45,2,0,3,0,3,32,9,6,27,1,740,3828,295,1
6.6.1,mac,0,2/15/23,16:20:58,12345,1,1,experiment,4,experiment_U,3189,1,24,DEV,POS,1,,,,,,24,45,45,2,0,3,0,3,32,9,6,27,1,740,3828,295,1
6.6.1,mac,0,2/15/23,16:20:58,12345,1,1,experiment,4,dispFeedback_U,1000,1,24,DEV,POS,1,68,0.729703832,49.61751344,68,0.324241189,24,45,45,3,0,4,0,3,32,10,6,27,1,639,3896,300,5
6.6.1,mac,0,2/15/23,16:20:58,12345,1,1,experiment,4,experiment_U,1394,1,61,DEV,POS,1,,,,,,61,45,45,3,0,4,0,3,32,10,6,27,1,639,3896,300,5
6.6.1,mac,0,2/15/23,16:20:58,12345,1,1,experiment,4,dispFeedback_U,1000,1,61,DEV,POS,1,74,0.716293605,53.29176135,74,0.34680884,61,45,45,4,0,5,0,3,32,11,6,27,0,694,3970,305,5
6.6.1,mac,0,2/15/23,16:20:58,12345,1,1,experiment,4,experiment_noU,1513,1,56,DEV,POS,1,,,,,,56,45,45,4,0,5,0,3,32,11,6,27,0,694,3970,305,5
6.6.1,mac,0,2/15/23,16:20:58,12345,1,1,experiment,4,dispFeedback_noU,1000,1,56,DEV,POS,1,75,0.748594129,56.45331823,1,0.953937956,56,45,45,4,0,5,0,3,32,12,6,27,0,563,3971,306,1
6.6.1,mac,0,2/15/23,16:20:58,12345,1,1,experiment,4,experiment_noU,3004,1,26,DEV,POS,1,,,,,,26,45,45,4,0,5,0,3,32,12,6,27,0,563,3971,306,1
6.6.1,mac,0,2/15/23,16:20:58,12345,1,1,experiment,4,dispFeedback_noU,1000,1,26,DEV,POS,1,68,0.750858234,51.31435543,1,0.808974358,26,45,45,4,0,5,0,3,32,13,6,27,0,554,3972,307,1
6.6.1,mac,0,2/15/23,16:20:58,12345,1,1,experiment,4,experiment_noU,4209,1,1,DEV,POS,1,,,,,,1,45,45,4,0,5,0,3,32,13,6,27,0,554,3972,307,1
6.6.1,mac,0,2/15/23,16:20:58,12345,1,1,experiment,4,dispFeedback_noU,1000,1,1,DEV,POS,1,67,0.7622631,51.05294349,67,0.545814161,1,45,45,4,0,5,0,3,32,14,6,27,0,509,4039,312,5
6.6.1,mac,0,2/15/23,16:20:58,12345,1,1,experiment,4,experiment_noU,3575,1,12,DEV,POS,1,,,,,,12,45,45,4,0,5,0,3,32,14,6,27,0,509,4039,312,5
6.6.1,mac,0,2/15/23,16:20:58,12345,1,1,experiment,4,dispFeedback_noU,1000,1,12,DEV,POS,1,71,0.783919494,55.8584839,71,0.166684324,12,45,45,4,0,5,0,3,32,15,6,27,0,425,4110,317,5
6.6.1,mac,0,2/15/23,16:20:58,12345,1,1,experiment,4,experiment_noU,3174,1,22,DEV,POS,1,,,,,,22,45,45,4,0,5,0,3,32,15,6,27,0,425,4110,317,5
6.6.1,mac,0,2/15/23,16:20:58,12345,1,1,experiment,4,dispFeedback_noU,1000,1,22,DEV,POS,1,68,0.758445959,51.64925563,1,0.97937566,22,45,45,4,0,5,0,3,32,16,6,27,0,524,4111,318,1
6.6.1,mac,0,2/15/23,16:20:58,12345,1,1,experiment,4,experiment_noU,2533,1,35,DEV,POS,1,,,,,,35,45,45,4,0,5,0,3,32,16,6,27,0,524,4111,318,1
6.6.1,mac,0,2/15/23,16:20:58,12345,1,1,experiment,4,dispFeedback_noU,1000,1,35,DEV,POS,1,73,0.756163098,55.33000782,73,0.656393666,35,45,45,4,0,5,0,3,32,17,6,27,0,533,4184,323,5
6.6.1,mac,0,2/15/23,16:20:58,12345,1,1,experiment,4,experiment_noU,1263,1,60,DEV,POS,1,,,,,,60,45,45,4,0,5,0,3,32,17,6,27,0,533,4184,323,5
6.6.1,mac,0,2/15/23,16:20:58,12345,1,1,experiment,4,dispFeedback_noU,1000,1,60,DEV,POS,1,68,0.761243689,51.77105595,68,0.145685554,60,45,45,4,0,5,0,3,32,18,6,27,0,513,4252,328,5
6.6.1,mac,0,2/15/23,16:20:58,12345,1,1,experiment,4,experiment_noU,4283,1,99,DEV,POS,1,,,,,,99,45,45,4,0,5,0,3,32,18,6,27,0,513,4252,328,5
6.6.1,mac,0,2/15/23,16:20:58,12345,1,1,experiment,4,dispFeedback_noU,1000,1,99,DEV,POS,1,67,0.768915797,51.33134892,67,0.498038127,99,45,45,4,0,5,0,3,32,19,6,27,0,483,4319,333,5
6.6.1,mac,0,2/15/23,16:20:58,12345,1,1,experiment,4,experiment_noU,349,1,81,DEV,POS,1,,,,,,81,45,45,4,0,5,0,3,32,19,6,27,0,483,4319,333,5
6.6.1,mac,0,2/15/23,16:20:58,12345,1,1,experiment,4,dispFeedback_noU,1000,1,81,DEV,POS,1,69,0.727249154,50.23196346,1,0.826303345,81,45,45,4,0,5,0,3,32,20,6,27,0,649,4320,334,1
6.6.1,mac,0,2/15/23,16:20:58,12345,1,1,experiment,4,experiment_noU,2861,1,24,DEV,POS,1,,,,,,24,45,45,4,0,5,0,3,32,20,6,27,0,649,4320,334,1
6.6.1,mac,0,2/15/23,16:20:58,12345,1,1,experiment,4,dispFeedback_noU,1000,1,24,DEV,POS,1,72,0.814040736,58.76311973,72,0.314518241,24,45,45,4,0,5,0,3,32,21,6,27,0,311,4392,339,5
6.6.1,mac,0,2/15/23,16:20:58,12345,1,1,experiment,4,experiment_noU,920,1,65,DEV,POS,1,,,,,,65,45,45,4,0,5,0,3,32,21,6,27,0,311,4392,339,5
6.6.1,mac,0,2/15/23,16:20:58,12345,1,1,experiment,4,dispFeedback_noU,1000,1,65,DEV,POS,1,67,0.785223284,52.7755162,67,0.586756684,65,45,45,4,0,5,0,3,32,22,6,27,0,420,4459,344,5
6.6.1,mac,0,2/15/23,16:20:58,12345,1,1,experiment,4,experiment_noU,2610,1,32,DEV,POS,1,,,,,,32,45,45,4,0,5,0,3,32,22,6,27,0,420,4459,344,5
6.6.1,mac,0,2/15/23,16:20:58,12345,1,1,experiment,4,dispFeedback_noU,1000,1,32,DEV,POS,1,70,0.77483884,53.89914785,70,0.255600715,32,45,45,4,0,5,0,3,32,23,6,27,0,460,4529,349,5
6.6.1,mac,0,2/15/23,16:20:58,12345,1,1,experiment,4,experiment_noU,487,1,73,DEV,POS,1,,,,,,73,45,45,4,0,5,0,3,32,23,6,27,0,460,4529,349,5
6.6.1,mac,0,2/15/23,16:20:58,12345,1,1,experiment,4,dispFeedback_noU,1000,1,73,DEV,POS,1,71,0.793868788,56.29464003,71,0.251135735,73,45,45,4,0,5,0,3,32,24,6,27,0,387,4600,354,5
6.6.1,mac,0,2/15/23,16:20:58,12345,1,1,experiment,4,experiment_noU,1153,1,60,DEV,POS,1,,,,,,60,45,45,4,0,5,0,3,32,24,6,27,0,387,4600,354,5
6.6.1,mac,0,2/15/23,16:20:58,12345,1,1,experiment,4,dispFeedback_noU,1000,1,60,DEV,POS,1,74,0.789668285,58.48116714,74,0.17199926,60,45,45,4,0,5,0,3,32,25,6,27,0,403,4674,359,5
6.6.1,mac,0,2/15/23,16:20:58,12345,1,1,experiment,4,experiment_noU,530,1,72,DEV,POS,1,,,,,,72,45,45,4,0,5,0,3,32,25,6,27,0,403,4674,359,5
6.6.1,mac,0,2/15/23,16:20:58,12345,1,1,experiment,4,dispFeedback_noU,1000,1,72,DEV,POS,1,69,0.795711641,54.78248918,69,0.168245574,72,45,45,4,0,5,0,3,32,26,6,27,0,380,4743,364,5
6.6.1,mac,0,2/15/23,16:20:58,12345,1,1,experiment,4,experiment_noU,3626,1,10,DEV,POS,1,,,,,,10,45,45,4,0,5,0,3,32,26,6,27,0,380,4743,364,5
6.6.1,mac,0,2/15/23,16:20:58,12345,1,1,experiment,4,dispFeedback_noU,1000,1,10,DEV,POS,1,74,0.796766094,58.80935111,74,0.018540321,10,45,45,4,0,5,0,3,32,27,6,27,2,376,4817,369,5
6.6.1,mac,0,2/15/23,16:20:58,12345,1,1,experiment,4,experiment_U,4215,1,1,DEV,POS,1,,,,,,1,45,45,4,0,5,0,3,32,27,6,27,2,376,4817,369,5
6.6.1,mac,0,2/15/23,16:20:58,12345,1,1,experiment,4,dispFeedback_U,1000,1,1,DEV,POS,1,73,0.760734394,55.5526242,73,0.52306483,1,45,45,4,0,5,1,3,32,28,6,27,2,515,4890,374,5
6.6.1,mac,0,2/15/23,16:20:58,12345,1,1,experiment,4,experiment_U,1836,1,50,DEV,POS,1,,,,,,50,45,45,4,0,5,1,3,32,28,6,27,2,515,4890,374,5
6.6.1,mac,0,2/15/23,16:20:58,12345,1,1,experiment,4,dispFeedback_U,1000,1,50,DEV,POS,1,77,0.742833943,56.89582008,1,0.832955426,50,45,45,4,1,5,2,3,32,29,6,27,2,586,4891,375,1
6.6.1,mac,0,2/15/23,16:20:58,12345,1,1,experiment,4,experiment_U,2353,1,40,DEV,POS,1,,,,,,40,45,45,4,1,5,2,3,32,29,6,27,2,586,4891,375,1
6.6.1,mac,0,2/15/23,16:20:58,12345,1,1,experiment,4,dispFeedback_U,1000,1,40,DEV,POS,1,72,0.738600488,52.97556293,72,0.573537622,40,45,45,4,2,5,3,3,32,30,6,27,2,603,4963,380,5
6.6.1,mac,0,2/15/23,16:20:58,12345,1,1,experiment,4,experiment_U,4226,1,99,DEV,POS,1,,,,,,99,45,45,4,2,5,3,3,32,30,6,27,2,603,4963,380,5
6.6.1,mac,0,2/15/23,16:20:58,12345,1,1,experiment,4,dispFeedback_U,1000,1,99,DEV,POS,1,66,0.783658931,51.92858551,66,0.045085214,99,45,45,4,2,5,4,3,32,31,6,27,2,426,5029,385,5
6.6.1,mac,0,2/15/23,16:20:58,12345,1,1,experiment,4,experiment_U,3943,1,6,DEV,POS,1,,,,,,6,45,45,4,2,5,4,3,32,31,6,27,2,426,5029,385,5
6.6.1,mac,0,2/15/23,16:20:58,12345,1,1,experiment,4,dispFeedback_U,1000,1,6,DEV,POS,1,67,0.766351645,51.22467916,1,0.867883932,6,45,45,4,2,5,5,3,32,32,6,27,2,493,5030,386,1
6.6.1,mac,0,2/15/23,16:20:58,12345,1,1,experiment,5,experiment_noU,4280,1,99,IEV,POS,1,,,,,,99,10,20,0,0,0,0,4,38,0,7,29,2,493,5030,386,1
6.6.1,mac,0,2/15/23,16:20:58,12345,1,1,experiment,5,dispFeedback_noU,1000,1,99,IEV,POS,1,20,0.893170786,18.10523211,20,0.268177268,99,10,20,0,0,0,0,4,38,1,7,29,0,480,5050,387,1
6.6.1,mac,0,2/15/23,16:20:58,12345,1,1,experiment,5,experiment_noU,4202,1,99,IEV,POS,1,,,,,,99,10,20,0,0,0,0,4,38,1,7,29,0,480,5050,387,1
6.6.1,mac,0,2/15/23,16:20:58,12345,1,1,experiment,5,dispFeedback_noU,1000,1,99,IEV,POS,1,13,0.895212521,11.43863343,13,0.088844269,99,10,20,0,0,0,0,4,38,2,7,29,0,402,5063,388,1
6.6.1,mac,0,2/15/23,16:20:58,12345,1,1,experiment,5,experiment_noU,4497,1,93,IEV,POS,1,,,,,,93,10,20,0,0,0,0,4,38,2,7,29,0,402,5063,388,1
6.6.1,mac,0,2/15/23,16:20:58,12345,1,1,experiment,5,dispFeedback_noU,1000,1,93,IEV,POS,1,21,0.895329874,18.57688254,21,0.088524496,93,10,20,0,0,0,0,4,38,3,7,29,0,397,5084,389,1
6.6.1,mac,0,2/15/23,16:20:58,12345,1,1,experiment,5,experiment_noU,2426,1,35,IEV,POS,1,,,,,,35,10,20,0,0,0,0,4,38,3,7,29,0,397,5084,389,1
6.6.1,mac,0,2/15/23,16:20:58,12345,1,1,experiment,5,dispFeedback_noU,1000,1,35,IEV,POS,1,18,0.894626783,16.03256626,18,0.104913213,35,10,20,0,0,0,0,4,38,4,7,29,0,426,5102,390,1
6.6.1,mac,0,2/15/23,16:20:58,12345,1,1,experiment,5,experiment_noU,1896,1,47,IEV,POS,1,,,,,,47,10,20,0,0,0,0,4,38,4,7,29,0,426,5102,390,1
6.6.1,mac,0,2/15/23,16:20:58,12345,1,1,experiment,5,dispFeedback_noU,1000,1,47,IEV,POS,1,17,0.892701996,15.51642349,17,0.591428953,47,10,20,0,0,0,0,4,38,5,7,29,0,496,5119,391,1
6.6.1,mac,0,2/15/23,16:20:58,12345,1,1,experiment,5,experiment_noU,2474,1,36,IEV,POS,1,,,,,,36,10,20,0,0,0,0,4,38,5,7,29,0,496,5119,391,1
6.6.1,mac,0,2/15/23,16:20:58,12345,1,1,experiment,5,dispFeedback_noU,1000,1,36,IEV,POS,1,17,0.891839755,14.78906278,17,0.779756762,36,10,20,0,0,0,0,4,38,6,7,29,0,524,5136,392,1
6.6.1,mac,0,2/15/23,16:20:58,12345,1,1,experiment,5,experiment_noU,3125,1,23,IEV,POS,1,,,,,,23,10,20,0,0,0,0,4,38,6,7,29,0,524,5136,392,1
6.6.1,mac,0,2/15/23,16:20:58,12345,1,1,experiment,5,dispFeedback_noU,1000,1,23,IEV,POS,1,16,0.891807968,13.90329376,1,0.894467591,23,10,20,0,0,0,0,4,38,7,7,29,1,525,5137,393,1
6.6.1,mac,0,2/15/23,16:20:58,12345,1,1,experiment,5,experiment_U,599,1,40,IEV,POS,1,,,,,,40,10,20,0,0,0,0,4,38,7,7,29,1,525,5137,393,1
6.6.1,mac,0,2/15/23,16:20:58,12345,1,1,experiment,5,dispFeedback_U,1000,1,40,IEV,POS,1,124,0.408072509,50.64819778,124,0.009162987,40,10,20,1,0,1,0,4,38,8,7,29,1,3849,5261,401,8
6.6.1,mac,0,2/15/23,16:20:58,12345,1,1,experiment,5,experiment_U,973,1,32,IEV,POS,1,,,,,,32,10,20,1,0,1,0,4,38,8,7,29,1,3849,5261,401,8
6.6.1,mac,0,2/15/23,16:20:58,12345,1,1,experiment,5,dispFeedback_U,1000,1,32,IEV,POS,1,122,0.41347689,50.4254222,122,0.301564902,32,10,20,2,0,2,0,4,38,9,7,29,1,3823,5383,409,8
6.6.1,mac,0,2/15/23,16:20:58,12345,1,1,experiment,5,experiment_U,3429,1,82,IEV,POS,1,,,,,,82,10,20,2,0,2,0,4,38,9,7,29,1,3823,5383,409,8
6.6.1,mac,0,2/15/23,16:20:58,12345,1,1,experiment,5,dispFeedback_U,1000,1,82,IEV,POS,1,122,0.422637164,51.73183172,1,0.51030478,82,10,20,3,0,3,0,4,38,10,7,29,1,3779,5384,410,1
6.6.1,mac,0,2/15/23,16:20:58,12345,1,1,experiment,5,experiment_U,3497,1,84,IEV,POS,1,,,,,,84,10,20,3,0,3,0,4,38,10,7,29,1,3779,5384,410,1
6.6.1,mac,0,2/15/23,16:20:58,12345,1,1,experiment,5,dispFeedback_U,1000,1,84,IEV,POS,1,131,0.387774011,50.68389551,1,0.787055255,84,10,20,4,0,4,0,4,38,11,7,29,0,3947,5385,411,1
6.6.1,mac,0,2/15/23,16:20:58,12345,1,1,experiment,5,experiment_noU,4444,1,69,IEV,POS,1,,,,,,69,10,20,4,0,4,0,4,38,11,7,29,0,3947,5385,411,1
6.6.1,mac,0,2/15/23,16:20:58,12345,1,1,experiment,5,dispFeedback_noU,1000,1,69,IEV,POS,1,156,0.347445769,54.34217876,156,0.231881224,69,10,20,4,0,4,0,4,38,12,7,29,0,4144,5541,421,10
6.6.1,mac,0,2/15/23,16:20:58,12345,1,1,experiment,5,experiment_noU,457,1,51,IEV,POS,1,,,,,,51,10,20,4,0,4,0,4,38,12,7,29,0,4144,5541,421,10
6.6.1,mac,0,2/15/23,16:20:58,12345,1,1,experiment,5,dispFeedback_noU,1000,1,51,IEV,POS,1,168,0.32469598,54.69930523,1,0.725744181,51,10,20,4,0,4,0,4,38,13,7,29,0,4257,5542,422,1
6.6.1,mac,0,2/15/23,16:20:58,12345,1,1,experiment,5,experiment_noU,3813,1,80,IEV,POS,1,,,,,,80,10,20,4,0,4,0,4,38,13,7,29,0,4257,5542,422,1
6.6.1,mac,0,2/15/23,16:20:58,12345,1,1,experiment,5,dispFeedback_noU,1000,1,80,IEV,POS,1,146,0.363936651,53.08882041,1,0.917226529,80,10,20,4,0,4,0,4,38,14,7,29,0,4063,5543,423,1
6.6.1,mac,0,2/15/23,16:20:58,12345,1,1,experiment,5,experiment_noU,2042,1,14,IEV,POS,1,,,,,,14,10,20,4,0,4,0,4,38,14,7,29,0,4063,5543,423,1
6.6.1,mac,0,2/15/23,16:20:58,12345,1,1,experiment,5,dispFeedback_noU,1000,1,14,IEV,POS,1,141,0.378499172,53.33076029,1,0.679334809,14,10,20,4,0,4,0,4,38,15,7,29,0,3992,5544,424,1
6.6.1,mac,0,2/15/23,16:20:58,12345,1,1,experiment,5,experiment_noU,2615,1,9,IEV,POS,1,,,,,,9,10,20,4,0,4,0,4,38,15,7,29,0,3992,5544,424,1
6.6.1,mac,0,2/15/23,16:20:58,12345,1,1,experiment,5,dispFeedback_noU,1000,1,9,IEV,POS,1,178,0.313150248,55.66411368,1,0.497732552,9,10,20,4,0,4,0,4,38,16,7,29,0,4315,5545,425,1
6.6.1,mac,0,2/15/23,16:20:58,12345,1,1,experiment,5,experiment_noU,1867,1,7,IEV,POS,1,,,,,,7,10,20,4,0,4,0,4,38,16,7,29,0,4315,5545,425,1
6.6.1,mac,0,2/15/23,16:20:58,12345,1,1,experiment,5,dispFeedback_noU,1000,1,7,IEV,POS,1,100,0.487784894,49.02019865,1,0.543025986,7,10,20,4,0,4,0,4,38,17,7,29,0,3467,5546,426,1
6.6.1,mac,0,2/15/23,16:20:58,12345,1,1,experiment,5,experiment_noU,2798,1,84,IEV,POS,1,,,,,,84,10,20,4,0,4,0,4,38,17,7,29,0,3467,5546,426,1
6.6.1,mac,0,2/15/23,16:20:58,12345,1,1,experiment,5,dispFeedback_noU,1000,1,84,IEV,POS,1,89,0.533181819,47.40792896,1,0.906099572,84,10,20,4,0,4,0,4,38,18,7,29,0,3248,5547,427,1
6.6.1,mac,0,2/15/23,16:20:58,12345,1,1,experiment,5,experiment_noU,477,1,19,IEV,POS,1,,,,,,19,10,20,4,0,4,0,4,38,18,7,29,0,3248,5547,427,1
6.6.1,mac,0,2/15/23,16:20:58,12345,1,1,experiment,5,dispFeedback_noU,1000,1,19,IEV,POS,1,67,0.646164932,43.11729651,1,0.724894026,19,10,20,4,0,4,0,4,38,19,7,29,0,2677,5548,428,1
6.6.1,mac,0,2/15/23,16:20:58,12345,1,1,experiment,5,experiment_noU,1944,1,46,IEV,POS,1,,,,,,46,10,20,4,0,4,0,4,38,19,7,29,0,2677,5548,428,1
6.6.1,mac,0,2/15/23,16:20:58,12345,1,1,experiment,5,dispFeedback_noU,1000,1,46,IEV,POS,1,14,0.892761541,12.82666873,14,0.25492205,46,10,20,4,0,4,0,4,38,20,7,29,0,494,5562,429,1
6.6.1,mac,0,2/15/23,16:20:58,12345,1,1,experiment,5,experiment_noU,808,1,89,IEV,POS,1,,,,,,89,10,20,4,0,4,0,4,38,20,7,29,0,494,5562,429,1
6.6.1,mac,0,2/15/23,16:20:58,12345,1,1,experiment,5,dispFeedback_noU,1000,1,89,IEV,POS,1,34,0.823532804,28.08115424,34,0.592696641,89,10,20,4,0,4,0,4,38,21,7,29,0,1508,5596,432,3
6.6.1,mac,0,2/15/23,16:20:58,12345,1,1,experiment,5,experiment_noU,2886,1,53,IEV,POS,1,,,,,,53,10,20,4,0,4,0,4,38,21,7,29,0,1508,5596,432,3
6.6.1,mac,0,2/15/23,16:20:58,12345,1,1,experiment,5,dispFeedback_noU,1000,1,53,IEV,POS,1,32,0.79011875,24.94388747,1,0.836410873,53,10,20,4,0,4,0,4,38,22,7,29,0,1786,5597,433,1
6.6.1,mac,0,2/15/23,16:20:58,12345,1,1,experiment,5,experiment_noU,738,1,99,IEV,POS,1,,,,,,99,10,20,4,0,4,0,4,38,22,7,29,0,1786,5597,433,1
6.6.1,mac,0,2/15/23,16:20:58,12345,1,1,experiment,5,dispFeedback_noU,1000,1,99,IEV,POS,1,38,0.769316597,29.21487649,38,0.306455904,99,10,20,4,0,4,0,4,38,23,7,29,0,1938,5635,436,3
6.6.1,mac,0,2/15/23,16:20:58,12345,1,1,experiment,5,experiment_noU,754,1,4,IEV,POS,1,,,,,,4,10,20,4,0,4,0,4,38,23,7,29,0,1938,5635,436,3
6.6.1,mac,0,2/15/23,16:20:58,12345,1,1,experiment,5,dispFeedback_noU,1000,1,4,IEV,POS,1,42,0.728905887,30.41461861,1,0.771541841,4,10,20,4,0,4,0,4,38,24,7,29,0,2204,5636,437,1
6.6.1,mac,0,2/15/23,16:20:58,12345,1,1,experiment,5,experiment_noU,387,1,38,IEV,POS,1,,,,,,38,10,20,4,0,4,0,4,38,24,7,29,0,2204,5636,437,1
6.6.1,mac,0,2/15/23,16:20:58,12345,1,1,experiment,5,dispFeedback_noU,1000,1,38,IEV,POS,1,106,0.473177063,50.13844351,106,0.344095612,38,10,20,4,0,4,0,4,38,25,7,29,0,3537,5742,445,8
6.6.1,mac,0,2/15/23,16:20:58,12345,1,1,experiment,5,experiment_noU,530,1,64,IEV,POS,1,,,,,,64,10,20,4,0,4,0,4,38,25,7,29,0,3537,5742,445,8
6.6.1,mac,0,2/15/23,16:20:58,12345,1,1,experiment,5,dispFeedback_noU,1000,1,64,IEV,POS,1,309,0.189163828,58.4473055,1,0.217553952,64,10,20,4,0,4,0,4,38,26,7,29,0,4980,5743,446,1
6.6.1,mac,0,2/15/23,16:20:58,12345,1,1,experiment,5,experiment_noU,3755,1,68,IEV,POS,1,,,,,,68,10,20,4,0,4,0,4,38,26,7,29,0,4980,5743,446,1
6.6.1,mac,0,2/15/23,16:20:58,12345,1,1,experiment,5,dispFeedback_noU,1000,1,68,IEV,POS,1,100,0.500694428,49.93404406,100,0.128103322,68,10,20,4,0,4,0,4,38,27,7,29,0,3405,5843,453,7
6.6.1,mac,0,2/15/23,16:20:58,12345,1,1,experiment,5,experiment_noU,452,1,42,IEV,POS,1,,,,,,42,10,20,4,0,4,0,4,38,27,7,29,0,3405,5843,453,7
6.6.1,mac,0,2/15/23,16:20:58,12345,1,1,experiment,5,dispFeedback_noU,1000,1,42,IEV,POS,1,118,0.417846751,49.40750458,1,0.997936188,42,10,20,4,0,4,0,4,38,28,7,29,0,3802,5844,454,1
6.6.1,mac,0,2/15/23,16:20:58,12345,1,1,experiment,5,experiment_noU,3008,1,94,IEV,POS,1,,,,,,94,10,20,4,0,4,0,4,38,28,7,29,0,3802,5844,454,1
6.6.1,mac,0,2/15/23,16:20:58,12345,1,1,experiment,5,dispFeedback_noU,1000,1,94,IEV,POS,1,136,0.385503871,52.31868304,1,0.927258955,94,10,20,4,0,4,0,4,38,29,7,29,2,3958,5845,455,1
6.6.1,mac,0,2/15/23,16:20:58,12345,1,1,experiment,5,experiment_U,407,1,46,IEV,POS,1,,,,,,46,10,20,4,0,4,0,4,38,29,7,29,2,3958,5845,455,1
6.6.1,mac,0,2/15/23,16:20:58,12345,1,1,experiment,5,dispFeedback_U,1000,1,46,IEV,POS,1,134,0.385710171,51.53967791,1,0.860866185,46,10,20,4,0,4,1,4,38,30,7,29,2,3957,5846,456,1
6.6.1,mac,0,2/15/23,16:20:58,12345,1,1,experiment,5,experiment_U,1077,1,31,IEV,POS,1,,,,,,31,10,20,4,0,4,1,4,38,30,7,29,2,3957,5846,456,1
6.6.1,mac,0,2/15/23,16:20:58,12345,1,1,experiment,5,dispFeedback_U,1000,1,31,IEV,POS,1,126,0.402260574,50.88458454,1,0.427793377,31,10,20,4,0,4,2,4,38,31,7,29,2,3877,5847,457,1
6.6.1,mac,0,2/15/23,16:20:58,12345,1,1,experiment,5,experiment_U,2569,1,1,IEV,POS,1,,,,,,1,10,20,4,0,4,2,4,38,31,7,29,2,3877,5847,457,1
6.6.1,mac,0,2/15/23,16:20:58,12345,1,1,experiment,5,dispFeedback_U,1000,1,1,IEV,POS,1,131,0.403920208,52.83702062,1,0.577733906,1,10,20,4,0,4,3,4,38,32,7,29,2,3869,5848,458,1
6.6.1,mac,0,2/15/23,16:20:58,12345,1,1,experiment,5,experiment_U,3632,1,62,IEV,POS,1,,,,,,62,10,20,4,0,4,3,4,38,32,7,29,2,3869,5848,458,1
6.6.1,mac,0,2/15/23,16:20:58,12345,1,1,experiment,5,dispFeedback_U,1000,1,62,IEV,POS,1,78,0.587107126,45.79789602,78,0.375118568,62,10,20,4,1,4,4,4,38,33,7,29,2,2982,5926,464,6
6.6.1,mac,0,2/15/23,16:20:58,12345,1,1,experiment,5,experiment_U,733,1,19,IEV,POS,1,,,,,,19,10,20,4,1,4,4,4,38,33,7,29,2,2982,5926,464,6
6.6.1,mac,0,2/15/23,16:20:58,12345,1,1,experiment,5,dispFeedback_U,1000,1,19,IEV,POS,1,70,0.596827069,41.69912172,70,0.033498451,19,10,20,4,2,4,5,4,38,34,7,29,2,2933,5996,469,5
6.6.1,mac,0,2/15/23,16:20:58,12345,1,1,experiment,5,experiment_U,3629,1,62,IEV,POS,1,,,,,,62,10,20,4,2,4,5,4,38,34,7,29,2,2933,5996,469,5
6.6.1,mac,0,2/15/23,16:20:58,12345,1,1,experiment,5,dispFeedback_U,1000,1,62,IEV,POS,1,77,0.587704441,45.17869328,77,0.322196059,62,10,20,4,3,4,6,4,38,35,7,29,2,2979,6073,475,6
6.6.1,mac,0,2/15/23,16:20:58,12345,1,1,experiment,5,experiment_U,3195,1,71,IEV,POS,1,,,,,,71,10,20,4,3,4,6,4,38,35,7,29,2,2979,6073,475,6
6.6.1,mac,0,2/15/23,16:20:58,12345,1,1,experiment,5,dispFeedback_U,1000,1,71,IEV,POS,1,70,0.584515528,40.67343443,70,0.392503298,71,10,20,4,4,4,7,4,38,36,7,29,0,2995,6143,480,5
6.6.1,mac,0,2/15/23,16:20:58,12345,1,1,experiment,5,experiment_noU,4185,1,61,IEV,POS,1,,,,,,61,10,20,4,4,4,7,4,38,36,7,29,0,2995,6143,480,5
6.6.1,mac,0,2/15/23,16:20:58,12345,1,1,experiment,5,dispFeedback_noU,1000,1,61,IEV,POS,1,98,0.48403128,47.25190307,98,0.238917519,61,10,20,4,4,4,7,4,38,37,7,29,0,3485,6241,487,7
6.6.1,mac,0,2/15/23,16:20:58,12345,1,1,experiment,5,experiment_noU,368,1,55,IEV,POS,1,,,,,,55,10,20,4,4,4,7,4,38,37,7,29,0,3485,6241,487,7
6.6.1,mac,0,2/15/23,16:20:58,12345,1,1,experiment,5,dispFeedback_noU,1000,1,55,IEV,POS,1,183,0.302685278,55.33357068,1,0.482367651,55,10,20,4,4,4,7,4,38,38,7,29,0,4368,6242,488,1
6.6.1,mac,0,2/15/23,16:20:58,12345,1,1,experiment,6,experiment_noU,3567,1,69,CEVR,POS,1,,,,,,69,35,10,0,0,0,0,5,37,0,10,30,0,4368,6242,488,1
6.6.1,mac,0,2/15/23,16:20:58,12345,1,1,experiment,6,dispFeedback_noU,1000,1,69,CEVR,POS,1,83,0.426969997,35.29212001,83,0.407937912,69,35,10,0,0,0,0,5,37,1,10,30,0,3267,6325,494,6
6.6.1,mac,0,2/15/23,16:20:58,12345,1,1,experiment,6,experiment_noU,3374,1,72,CEVR,POS,1,,,,,,72,35,10,0,0,0,0,5,37,1,10,30,0,3267,6325,494,6
6.6.1,mac,0,2/15/23,16:20:58,12345,1,1,experiment,6,dispFeedback_noU,1000,1,72,CEVR,POS,1,90,0.4210013,37.8420026,1,0.428612515,72,35,10,0,0,0,0,5,37,2,10,30,0,3224,6326,495,1
6.6.1,mac,0,2/15/23,16:20:58,12345,1,1,experiment,6,experiment_noU,1301,1,12,CEVR,POS,1,,,,,,12,35,10,0,0,0,0,5,37,2,10,30,0,3224,6326,495,1
6.6.1,mac,0,2/15/23,16:20:58,12345,1,1,experiment,6,dispFeedback_noU,1000,1,12,CEVR,POS,1,93,0.411241664,38.23372499,1,0.842317197,12,35,10,0,0,0,0,5,37,3,10,30,0,3151,6327,496,1
6.6.1,mac,0,2/15/23,16:20:58,12345,1,1,experiment,6,experiment_noU,400,1,36,CEVR,POS,1,,,,,,36,35,10,0,0,0,0,5,37,3,10,30,0,3151,6327,496,1
6.6.1,mac,0,2/15/23,16:20:58,12345,1,1,experiment,6,dispFeedback_noU,1000,1,36,CEVR,POS,1,77,0.454385965,35.18245614,77,0.360092188,36,35,10,0,0,0,0,5,37,4,10,30,0,3450,6404,502,6
6.6.1,mac,0,2/15/23,16:20:58,12345,1,1,experiment,6,experiment_noU,2621,1,90,CEVR,POS,1,,,,,,90,35,10,0,0,0,0,5,37,4,10,30,0,3450,6404,502,6
6.6.1,mac,0,2/15/23,16:20:58,12345,1,1,experiment,6,dispFeedback_noU,1000,1,90,CEVR,POS,1,89,0.44213042,39.2106521,1,0.749011212,90,35,10,0,0,0,0,5,37,5,10,30,0,3371,6405,503,1
6.6.1,mac,0,2/15/23,16:20:58,12345,1,1,experiment,6,experiment_noU,338,1,43,CEVR,POS,1,,,,,,43,35,10,0,0,0,0,5,37,5,10,30,0,3371,6405,503,1
6.6.1,mac,0,2/15/23,16:20:58,12345,1,1,experiment,6,dispFeedback_noU,1000,1,43,CEVR,POS,1,74,0.505464481,37.50546448,74,0.201020633,43,35,10,0,0,0,0,5,37,6,10,30,0,3738,6479,508,5
6.6.1,mac,0,2/15/23,16:20:58,12345,1,1,experiment,6,experiment_noU,2658,1,88,CEVR,POS,1,,,,,,88,35,10,0,0,0,0,5,37,6,10,30,0,3738,6479,508,5
6.6.1,mac,0,2/15/23,16:20:58,12345,1,1,experiment,6,dispFeedback_noU,1000,1,88,CEVR,POS,1,83,0.432820856,36.13435829,1,0.55845415,88,35,10,0,0,0,0,5,37,7,10,30,0,3308,6480,509,1
6.6.1,mac,0,2/15/23,16:20:58,12345,1,1,experiment,6,experiment_noU,422,1,39,CEVR,POS,1,,,,,,39,35,10,0,0,0,0,5,37,7,10,30,0,3308,6480,509,1
6.6.1,mac,0,2/15/23,16:20:58,12345,1,1,experiment,6,dispFeedback_noU,1000,1,39,CEVR,POS,1,76,0.483569828,36.51643017,76,0.274382561,39,35,10,0,0,0,0,5,37,8,10,30,0,3622,6556,515,6
6.6.1,mac,0,2/15/23,16:20:58,12345,1,1,experiment,6,experiment_noU,2003,1,6,CEVR,POS,1,,,,,,6,35,10,0,0,0,0,5,37,8,10,30,0,3622,6556,515,6
6.6.1,mac,0,2/15/23,16:20:58,12345,1,1,experiment,6,dispFeedback_noU,1000,1,6,CEVR,POS,1,82,0.471423371,38.88569348,82,0.436758126,6,35,10,0,0,0,0,5,37,9,10,30,0,3553,6638,521,6
6.6.1,mac,0,2/15/23,16:20:58,12345,1,1,experiment,6,experiment_noU,352,1,51,CEVR,POS,1,,,,,,51,35,10,0,0,0,0,5,37,9,10,30,0,3553,6638,521,6
6.6.1,mac,0,2/15/23,16:20:58,12345,1,1,experiment,6,dispFeedback_noU,1000,1,51,CEVR,POS,1,65,0.602886406,39.41154562,1,0.828420303,51,35,10,0,0,0,0,5,37,10,10,30,1,4152,6639,522,1
6.6.1,mac,0,2/15/23,16:20:58,12345,1,1,experiment,6,experiment_U,2930,1,86,CEVR,POS,1,,,,,,86,35,10,0,0,0,0,5,37,10,10,30,1,4152,6639,522,1
6.6.1,mac,0,2/15/23,16:20:58,12345,1,1,experiment,6,dispFeedback_U,1000,1,86,CEVR,POS,1,77,0.459219858,35.16312057,1,0.517120147,86,35,10,0,0,1,0,5,37,11,10,30,1,3480,6640,523,1
6.6.1,mac,0,2/15/23,16:20:58,12345,1,1,experiment,6,experiment_U,2571,1,93,CEVR,POS,1,,,,,,93,35,10,0,0,1,0,5,37,11,10,30,1,3480,6640,523,1
6.6.1,mac,0,2/15/23,16:20:58,12345,1,1,experiment,6,dispFeedback_U,1000,1,93,CEVR,POS,1,78,0.457758925,35.62672322,78,0.149964725,93,35,10,0,0,2,0,5,37,12,10,30,1,3471,6718,529,6
6.6.1,mac,0,2/15/23,16:20:58,12345,1,1,experiment,6,experiment_U,3075,1,81,CEVR,POS,1,,,,,,81,35,10,0,0,2,0,5,37,12,10,30,1,3471,6718,529,6
6.6.1,mac,0,2/15/23,16:20:58,12345,1,1,experiment,6,dispFeedback_U,1000,1,81,CEVR,POS,1,84,0.442735043,37,84,0.242835327,81,35,10,0,0,3,0,5,37,13,10,30,1,3375,6802,535,6
6.6.1,mac,0,2/15/23,16:20:58,12345,1,1,experiment,6,experiment_U,1509,1,12,CEVR,POS,1,,,,,,12,35,10,0,0,3,0,5,37,13,10,30,1,3375,6802,535,6
6.6.1,mac,0,2/15/23,16:20:58,12345,1,1,experiment,6,dispFeedback_U,1000,1,12,CEVR,POS,1,88,0.44032642,38.76130568,88,0.169046524,12,35,10,0,0,4,0,5,37,14,10,30,1,3359,6890,541,6
6.6.1,mac,0,2/15/23,16:20:58,12345,1,1,experiment,6,experiment_U,2647,1,89,CEVR,POS,1,,,,,,89,35,10,0,0,4,0,5,37,14,10,30,1,3359,6890,541,6
6.6.1,mac,0,2/15/23,16:20:58,12345,1,1,experiment,6,dispFeedback_U,1000,1,89,CEVR,POS,1,89,0.438537081,39.1926854,89,0.241958481,89,35,10,0,0,5,0,5,37,15,10,30,1,3347,6979,548,7
6.6.1,mac,0,2/15/23,16:20:58,12345,1,1,experiment,6,experiment_U,1245,1,18,CEVR,POS,1,,,,,,18,35,10,0,0,5,0,5,37,15,10,30,1,3347,6979,548,7
6.6.1,mac,0,2/15/23,16:20:58,12345,1,1,experiment,6,dispFeedback_U,1000,1,18,CEVR,POS,1,83,0.445783133,37,1,0.451995125,18,35,10,0,0,6,0,5,37,16,10,30,1,3395,6980,549,1
6.6.1,mac,0,2/15/23,16:20:58,12345,1,1,experiment,6,experiment_U,809,1,27,CEVR,POS,1,,,,,,27,35,10,0,0,6,0,5,37,16,10,30,1,3395,6980,549,1
6.6.1,mac,0,2/15/23,16:20:58,12345,1,1,experiment,6,dispFeedback_U,1000,1,27,CEVR,POS,1,86,0.447941889,38.34382567,86,0.094290514,27,35,10,0,0,7,0,5,37,17,10,30,1,3409,7066,555,6
6.6.1,mac,0,2/15/23,16:20:58,12345,1,1,experiment,6,experiment_U,4520,1,52,CEVR,POS,1,,,,,,52,35,10,0,0,7,0,5,37,17,10,30,1,3409,7066,555,6
6.6.1,mac,0,2/15/23,16:20:58,12345,1,1,experiment,6,dispFeedback_U,1000,1,52,CEVR,POS,1,80,0.441979522,35.23208191,80,0.138531369,52,35,10,0,0,8,0,5,37,18,10,30,1,3370,7146,561,6
6.6.1,mac,0,2/15/23,16:20:58,12345,1,1,experiment,6,experiment_U,2097,1,100,CEVR,POS,1,,,,,,100,35,10,0,0,8,0,5,37,18,10,30,1,3370,7146,561,6
6.6.1,mac,0,2/15/23,16:20:58,12345,1,1,experiment,6,dispFeedback_U,1000,1,100,CEVR,POS,1,86,0.438537081,37.87707416,1,0.449552128,100,35,10,0,0,9,0,5,37,19,10,30,1,3347,7147,562,1
6.6.1,mac,0,2/15/23,16:20:58,12345,1,1,experiment,6,experiment_U,1868,1,4,CEVR,POS,1,,,,,,4,35,10,0,0,9,0,5,37,19,10,30,1,3347,7147,562,1
6.6.1,mac,0,2/15/23,16:20:58,12345,1,1,experiment,6,dispFeedback_U,1000,1,4,CEVR,POS,1,87,0.4342723,37.8685446,1,0.513297541,4,35,10,0,0,10,0,5,37,20,10,30,1,3318,7148,563,1
6.6.1,mac,0,2/15/23,16:20:58,12345,1,1,experiment,6,experiment_U,352,1,49,CEVR,POS,1,,,,,,49,35,10,0,0,10,0,5,37,20,10,30,1,3318,7148,563,1
6.6.1,mac,0,2/15/23,16:20:58,12345,1,1,experiment,6,dispFeedback_U,1000,1,49,CEVR,POS,1,63,0.576067616,36.42393238,63,0.320808578,49,35,10,0,0,11,0,5,37,21,10,30,1,4052,7211,568,5
6.6.1,mac,0,2/15/23,16:20:58,12345,1,1,experiment,6,experiment_U,1088,1,20,CEVR,POS,1,,,,,,20,35,10,0,0,11,0,5,37,21,10,30,1,4052,7211,568,5
6.6.1,mac,0,2/15/23,16:20:58,12345,1,1,experiment,6,dispFeedback_U,1000,1,20,CEVR,POS,1,85,0.437204591,37,1,0.683011004,20,35,10,0,0,12,0,5,37,22,10,30,1,3338,7212,569,1
6.6.1,mac,0,2/15/23,16:20:58,12345,1,1,experiment,6,experiment_U,402,1,47,CEVR,POS,1,,,,,,47,35,10,0,0,12,0,5,37,22,10,30,1,3338,7212,569,1
6.6.1,mac,0,2/15/23,16:20:58,12345,1,1,experiment,6,dispFeedback_U,1000,1,47,CEVR,POS,1,68,0.563533507,38.12706701,1,0.674956539,47,35,10,0,0,13,0,5,37,23,10,30,1,4002,7213,570,1
6.6.1,mac,0,2/15/23,16:20:58,12345,1,1,experiment,6,experiment_U,545,1,33,CEVR,POS,1,,,,,,33,35,10,0,0,13,0,5,37,23,10,30,1,4002,7213,570,1
6.6.1,mac,0,2/15/23,16:20:58,12345,1,1,experiment,6,dispFeedback_U,1000,1,33,CEVR,POS,1,83,0.453590193,37.45359019,83,0.3049231,33,35,10,0,0,14,0,5,37,24,10,30,1,3445,7296,576,6
6.6.1,mac,0,2/15/23,16:20:58,12345,1,1,experiment,6,experiment_U,1337,1,15,CEVR,POS,1,,,,,,15,35,10,0,0,14,0,5,37,24,10,30,1,3445,7296,576,6
6.6.1,mac,0,2/15/23,16:20:58,12345,1,1,experiment,6,dispFeedback_U,1000,1,15,CEVR,POS,1,86,0.437057037,37.43705704,1,0.938064726,15,35,10,0,0,15,0,5,37,25,10,30,1,3337,7297,577,1
6.6.1,mac,0,2/15/23,16:20:58,12345,1,1,experiment,6,experiment_U,3731,1,66,CEVR,POS,1,,,,,,66,35,10,0,0,15,0,5,37,25,10,30,1,3337,7297,577,1
6.6.1,mac,0,2/15/23,16:20:58,12345,1,1,experiment,6,dispFeedback_U,1000,1,66,CEVR,POS,1,90,0.428949983,38.71579993,1,0.884230688,66,35,10,0,0,16,0,5,37,26,10,30,1,3281,7298,578,1
6.6.1,mac,0,2/15/23,16:20:58,12345,1,1,experiment,6,experiment_U,380,1,51,CEVR,POS,1,,,,,,51,35,10,0,0,16,0,5,37,26,10,30,1,3281,7298,578,1
6.6.1,mac,0,2/15/23,16:20:58,12345,1,1,experiment,6,dispFeedback_U,1000,1,51,CEVR,POS,1,65,0.610849057,39.44339623,65,0.049945845,51,35,10,0,0,17,0,5,37,27,10,30,1,4180,7363,583,5
6.6.1,mac,0,2/15/23,16:20:58,12345,1,1,experiment,6,experiment_U,4124,1,75,CEVR,POS,1,,,,,,75,35,10,0,0,17,0,5,37,27,10,30,1,4180,7363,583,5
6.6.1,mac,0,2/15/23,16:20:58,12345,1,1,experiment,6,dispFeedback_U,1000,1,75,CEVR,POS,1,65,0.595128676,38.78538603,1,0.823237557,75,35,10,0,0,18,0,5,37,28,10,30,1,4124,7364,584,1
6.6.1,mac,0,2/15/23,16:20:58,12345,1,1,experiment,6,experiment_U,373,1,56,CEVR,POS,1,,,,,,56,35,10,0,0,18,0,5,37,28,10,30,1,4124,7364,584,1
6.6.1,mac,0,2/15/23,16:20:58,12345,1,1,experiment,6,dispFeedback_U,1000,1,56,CEVR,POS,1,49,0.689930741,33.5503463,1,0.939912627,56,35,10,0,0,19,0,5,37,29,10,30,1,4423,7365,585,1
6.6.1,mac,0,2/15/23,16:20:58,12345,1,1,experiment,6,experiment_U,2085,1,11,CEVR,POS,1,,,,,,11,35,10,0,0,19,0,5,37,29,10,30,1,4423,7365,585,1
6.6.1,mac,0,2/15/23,16:20:58,12345,1,1,experiment,6,dispFeedback_U,1000,1,11,CEVR,POS,1,65,0.536231884,34.85507246,1,0.657061361,11,35,10,0,0,20,0,5,37,30,10,30,2,3885,7366,586,1
6.6.1,mac,0,2/15/23,16:20:58,12345,1,1,experiment,6,experiment_U,1983,1,74,CEVR,POS,1,,,,,,74,35,10,0,0,20,0,5,37,30,10,30,2,3885,7366,586,1
6.6.1,mac,0,2/15/23,16:20:58,12345,1,1,experiment,6,dispFeedback_U,1000,1,74,CEVR,POS,1,129,0.296542249,38.18616899,1,0.580831754,74,35,10,0,0,20,1,5,37,31,10,30,2,1933,7367,587,1
6.6.1,mac,0,2/15/23,16:20:58,12345,1,1,experiment,6,experiment_U,4143,1,65,CEVR,POS,1,,,,,,65,35,10,0,0,20,1,5,37,31,10,30,2,1933,7367,587,1
6.6.1,mac,0,2/15/23,16:20:58,12345,1,1,experiment,6,dispFeedback_U,1000,1,65,CEVR,POS,1,73,0.487391795,35.53782461,73,0.140998203,65,35,10,0,1,20,2,5,37,32,10,30,2,3643,7440,592,5
6.6.1,mac,0,2/15/23,16:20:58,12345,1,1,experiment,6,experiment_U,1911,1,6,CEVR,POS,1,,,,,,6,35,10,0,1,20,2,5,37,32,10,30,2,3643,7440,592,5
6.6.1,mac,0,2/15/23,16:20:58,12345,1,1,experiment,6,dispFeedback_U,1000,1,6,CEVR,POS,1,84,0.45614653,38.36843959,1,0.812602036,6,35,10,0,1,20,3,5,37,33,10,30,2,3461,7441,593,1
6.6.1,mac,0,2/15/23,16:20:58,12345,1,1,experiment,6,experiment_U,1257,1,22,CEVR,POS,1,,,,,,22,35,10,0,1,20,3,5,37,33,10,30,2,3461,7441,593,1
6.6.1,mac,0,2/15/23,16:20:58,12345,1,1,experiment,6,dispFeedback_U,1000,1,22,CEVR,POS,1,75,0.480876346,36.03824731,1,0.854237922,22,35,10,0,2,20,4,5,37,34,10,30,2,3607,7442,594,1
6.6.1,mac,0,2/15/23,16:20:58,12345,1,1,experiment,6,experiment_U,1716,1,16,CEVR,POS,1,,,,,,16,35,10,0,2,20,4,5,37,34,10,30,2,3607,7442,594,1
6.6.1,mac,0,2/15/23,16:20:58,12345,1,1,experiment,6,dispFeedback_U,1000,1,16,CEVR,POS,1,74,0.511049724,38.02209945,74,0.196576818,16,35,10,0,3,20,5,5,37,35,10,30,2,3766,7516,599,5
6.6.1,mac,0,2/15/23,16:20:58,12345,1,1,experiment,6,experiment_U,4077,1,68,CEVR,POS,1,,,,,,68,35,10,0,3,20,5,5,37,35,10,30,2,3766,7516,599,5
6.6.1,mac,0,2/15/23,16:20:58,12345,1,1,experiment,6,dispFeedback_U,1000,1,68,CEVR,POS,1,69,0.503303537,34.48348232,1,0.928868661,68,35,10,0,4,20,6,5,37,36,10,30,0,3727,7517,600,1
6.6.1,mac,0,2/15/23,16:20:58,12345,1,1,experiment,6,experiment_noU,2232,1,4,CEVR,POS,1,,,,,,4,35,10,0,4,20,6,5,37,36,10,30,0,3727,7517,600,1
6.6.1,mac,0,2/15/23,16:20:58,12345,1,1,experiment,6,dispFeedback_noU,1000,1,4,CEVR,POS,1,71,0.494652406,35.02139037,1,0.982059564,4,35,10,0,4,20,6,5,37,37,10,30,0,3682,7518,601,1
6.6.1,mac,0,2/15/23,16:20:58,12345,1,1,experiment,7,experiment_noU,2971,1,88,IEV,POS,1,,,,,,88,15,5,0,0,0,0,6,33,0,5,26,0,3682,7518,601,1
6.6.1,mac,0,2/15/23,16:20:58,12345,1,1,experiment,7,dispFeedback_noU,1000,1,88,IEV,POS,1,105,0.455624783,47.67808465,1,0.696034157,88,15,5,0,0,0,0,6,33,1,5,26,0,3621,7519,602,1
6.6.1,mac,0,2/15/23,16:20:58,12345,1,1,experiment,7,experiment_noU,1379,1,21,IEV,POS,1,,,,,,21,15,5,0,0,0,0,6,33,1,5,26,0,3621,7519,602,1
6.6.1,mac,0,2/15/23,16:20:58,12345,1,1,experiment,7,dispFeedback_noU,1000,1,21,IEV,POS,1,116,0.443504773,51.35285622,116,0.168403992,21,15,5,0,0,0,0,6,33,2,5,26,0,3679,7635,610,8
6.6.1,mac,0,2/15/23,16:20:58,12345,1,1,experiment,7,experiment_noU,393,1,59,IEV,POS,1,,,,,,59,15,5,0,0,0,0,6,33,2,5,26,0,3679,7635,610,8
6.6.1,mac,0,2/15/23,16:20:58,12345,1,1,experiment,7,dispFeedback_noU,1000,1,59,IEV,POS,1,220,0.259277908,56.9672329,220,0.248068065,59,15,5,0,0,0,0,6,33,3,5,26,0,4593,7855,620,10
6.6.1,mac,0,2/15/23,16:20:58,12345,1,1,experiment,7,experiment_noU,441,1,53,IEV,POS,1,,,,,,53,15,5,0,0,0,0,6,33,3,5,26,0,4593,7855,620,10
6.6.1,mac,0,2/15/23,16:20:58,12345,1,1,experiment,7,dispFeedback_noU,1000,1,53,IEV,POS,1,176,0.308005964,54.2604945,176,0.259639246,53,15,5,0,0,0,0,6,33,4,5,26,0,4341,8031,630,10
6.6.1,mac,0,2/15/23,16:20:58,12345,1,1,experiment,7,experiment_noU,358,1,56,IEV,POS,1,,,,,,56,15,5,0,0,0,0,6,33,4,5,26,0,4341,8031,630,10
6.6.1,mac,0,2/15/23,16:20:58,12345,1,1,experiment,7,dispFeedback_noU,1000,1,56,IEV,POS,1,186,0.294844304,54.9586017,186,0.094260581,56,15,5,0,0,0,0,6,33,5,5,26,1,4408,8217,640,10
6.6.1,mac,0,2/15/23,16:20:58,12345,1,1,experiment,7,experiment_U,646,1,50,IEV,POS,1,,,,,,50,15,5,0,0,0,0,6,33,5,5,26,1,4408,8217,640,10
6.6.1,mac,0,2/15/23,16:20:58,12345,1,1,experiment,7,dispFeedback_U,1000,1,50,IEV,POS,1,183,0.297191292,54.29587168,183,0.142200043,50,15,5,0,0,1,0,6,33,6,5,26,1,4396,8400,650,10
6.6.1,mac,0,2/15/23,16:20:58,12345,1,1,experiment,7,experiment_U,491,1,54,IEV,POS,1,,,,,,54,15,5,0,0,1,0,6,33,6,5,26,1,4396,8400,650,10
6.6.1,mac,0,2/15/23,16:20:58,12345,1,1,experiment,7,dispFeedback_U,1000,1,54,IEV,POS,1,197,0.288414092,56.87364492,1,0.298249037,54,15,5,0,0,2,0,6,33,7,5,26,1,4441,8401,651,1
6.6.1,mac,0,2/15/23,16:20:58,12345,1,1,experiment,7,experiment_U,1414,1,36,IEV,POS,1,,,,,,36,15,5,0,0,2,0,6,33,7,5,26,1,4441,8401,651,1
6.6.1,mac,0,2/15/23,16:20:58,12345,1,1,experiment,7,dispFeedback_U,1000,1,36,IEV,POS,1,201,0.283953695,56.97258535,1,0.670603384,36,15,5,0,0,3,0,6,33,8,5,26,1,4464,8402,652,1
6.6.1,mac,0,2/15/23,16:20:58,12345,1,1,experiment,7,experiment_U,4237,1,79,IEV,POS,1,,,,,,79,15,5,0,0,3,0,6,33,8,5,26,1,4464,8402,652,1
6.6.1,mac,0,2/15/23,16:20:58,12345,1,1,experiment,7,dispFeedback_U,1000,1,79,IEV,POS,1,192,0.289191612,55.41024565,1,0.427952723,79,15,5,0,0,4,0,6,33,9,5,26,1,4437,8403,653,1
6.6.1,mac,0,2/15/23,16:20:58,12345,1,1,experiment,7,experiment_U,5010,1,61,IEV,POS,1,,,,,,61,15,5,0,0,4,0,6,33,9,5,26,1,4437,8403,653,1
6.6.1,mac,0,2/15/23,16:20:58,12345,1,1,experiment,7,dispFeedback_U,1000,1,61,IEV,POS,1,172,0.314141807,54.06681938,1,0.606499785,61,15,5,0,0,5,0,6,33,10,5,26,1,4310,8404,654,1
6.6.1,mac,0,2/15/23,16:20:58,12345,1,1,experiment,7,experiment_U,3895,1,81,IEV,POS,1,,,,,,81,15,5,0,0,5,0,6,33,10,5,26,1,4310,8404,654,1
6.6.1,mac,0,2/15/23,16:20:58,12345,1,1,experiment,7,dispFeedback_U,1000,1,81,IEV,POS,1,161,0.337138626,54.32013434,1,0.567834017,81,15,5,0,0,6,0,6,33,11,5,26,1,4195,8405,655,1
6.6.1,mac,0,2/15/23,16:20:58,12345,1,1,experiment,7,experiment_U,2875,1,3,IEV,POS,1,,,,,,3,15,5,0,0,6,0,6,33,11,5,26,1,4195,8405,655,1
6.6.1,mac,0,2/15/23,16:20:58,12345,1,1,experiment,7,dispFeedback_U,1000,1,3,IEV,POS,1,176,0.321102744,56.41154276,176,0.020895954,3,15,5,0,0,7,0,6,33,12,5,26,1,4275,8581,665,10
6.6.1,mac,0,2/15/23,16:20:58,12345,1,1,experiment,7,experiment_U,358,1,56,IEV,POS,1,,,,,,56,15,5,0,0,7,0,6,33,12,5,26,1,4275,8581,665,10
6.6.1,mac,0,2/15/23,16:20:58,12345,1,1,experiment,7,dispFeedback_U,1000,1,56,IEV,POS,1,184,0.294844304,54.36891309,1,0.899858577,56,15,5,0,0,8,0,6,33,13,5,26,1,4408,8582,666,1
6.6.1,mac,0,2/15/23,16:20:58,12345,1,1,experiment,7,experiment_U,535,1,37,IEV,POS,1,,,,,,37,15,5,0,0,8,0,6,33,13,5,26,1,4408,8582,666,1
6.6.1,mac,0,2/15/23,16:20:58,12345,1,1,experiment,7,dispFeedback_U,1000,1,37,IEV,POS,1,113,0.452698827,50.98598102,113,0.079846145,37,15,5,1,0,9,0,6,33,14,5,26,1,3635,8695,674,8
6.6.1,mac,0,2/15/23,16:20:58,12345,1,1,experiment,7,experiment_U,2175,1,3,IEV,POS,1,,,,,,3,15,5,1,0,9,0,6,33,14,5,26,1,3635,8695,674,8
6.6.1,mac,0,2/15/23,16:20:58,12345,1,1,experiment,7,dispFeedback_U,1000,1,3,IEV,POS,1,105,0.465238316,49.07629156,1,0.538140377,3,15,5,2,0,10,0,6,33,15,5,26,1,3575,8696,675,1
6.6.1,mac,0,2/15/23,16:20:58,12345,1,1,experiment,7,experiment_U,2214,1,15,IEV,POS,1,,,,,,15,15,5,2,0,10,0,6,33,15,5,26,1,3575,8696,675,1
6.6.1,mac,0,2/15/23,16:20:58,12345,1,1,experiment,7,dispFeedback_U,1000,1,15,IEV,POS,1,167,0.333314992,55.77150178,1,0.785396083,15,15,5,2,0,11,0,6,33,16,5,26,1,4214,8697,676,1
6.6.1,mac,0,2/15/23,16:20:58,12345,1,1,experiment,7,experiment_U,2349,1,11,IEV,POS,1,,,,,,11,15,5,2,0,11,0,6,33,16,5,26,1,4214,8697,676,1
6.6.1,mac,0,2/15/23,16:20:58,12345,1,1,experiment,7,dispFeedback_U,1000,1,11,IEV,POS,1,153,0.346432542,52.98787798,1,0.620421441,11,15,5,2,0,12,0,6,33,17,5,26,1,4149,8698,677,1
6.6.1,mac,0,2/15/23,16:20:58,12345,1,1,experiment,7,experiment_U,2220,1,13,IEV,POS,1,,,,,,13,15,5,2,0,12,0,6,33,17,5,26,1,4149,8698,677,1
6.6.1,mac,0,2/15/23,16:20:58,12345,1,1,experiment,7,dispFeedback_U,1000,1,13,IEV,POS,1,157,0.352317168,55.24663902,1,0.68745627,13,15,5,2,0,13,0,6,33,18,5,26,1,4120,8699,678,1
6.6.1,mac,0,2/15/23,16:20:58,12345,1,1,experiment,7,experiment_U,3873,1,70,IEV,POS,1,,,,,,70,15,5,2,0,13,0,6,33,18,5,26,1,4120,8699,678,1
6.6.1,mac,0,2/15/23,16:20:58,12345,1,1,experiment,7,dispFeedback_U,1000,1,70,IEV,POS,1,108,0.455206783,49.06361545,1,0.457120624,70,15,5,3,0,14,0,6,33,19,5,26,1,3623,8700,679,1
6.6.1,mac,0,2/15/23,16:20:58,12345,1,1,experiment,7,experiment_U,1510,1,22,IEV,POS,1,,,,,,22,15,5,3,0,14,0,6,33,19,5,26,1,3623,8700,679,1
6.6.1,mac,0,2/15/23,16:20:58,12345,1,1,experiment,7,dispFeedback_U,1000,1,22,IEV,POS,1,128,0.405788187,51.95886558,128,0.163694561,22,15,5,3,0,15,0,6,33,20,5,26,0,3860,8828,688,9
6.6.1,mac,0,2/15/23,16:20:58,12345,1,1,experiment,7,experiment_noU,3127,1,87,IEV,POS,1,,,,,,87,15,5,3,0,15,0,6,33,20,5,26,0,3860,8828,688,9
6.6.1,mac,0,2/15/23,16:20:58,12345,1,1,experiment,7,dispFeedback_noU,1000,1,87,IEV,POS,1,118,0.433481693,51.30977161,118,0.242677256,87,15,5,3,0,15,0,6,33,21,5,26,0,3727,8946,696,8
6.6.1,mac,0,2/15/23,16:20:58,12345,1,1,experiment,7,experiment_noU,4649,1,57,IEV,POS,1,,,,,,57,15,5,3,0,15,0,6,33,21,5,26,0,3727,8946,696,8
6.6.1,mac,0,2/15/23,16:20:58,12345,1,1,experiment,7,dispFeedback_noU,1000,1,57,IEV,POS,1,119,0.428891515,51.06094084,119,0.25509843,57,15,5,3,0,15,0,6,33,22,5,26,0,3749,9065,704,8
6.6.1,mac,0,2/15/23,16:20:58,12345,1,1,experiment,7,experiment_noU,3852,1,72,IEV,POS,1,,,,,,72,15,5,3,0,15,0,6,33,22,5,26,0,3749,9065,704,8
6.6.1,mac,0,2/15/23,16:20:58,12345,1,1,experiment,7,dispFeedback_noU,1000,1,72,IEV,POS,1,116,0.438700862,51.10250815,116,0.103070421,72,15,5,3,0,15,0,6,33,23,5,26,0,3702,9181,712,8
6.6.1,mac,0,2/15/23,16:20:58,12345,1,1,experiment,7,experiment_noU,2831,1,91,IEV,POS,1,,,,,,91,15,5,3,0,15,0,6,33,23,5,26,0,3702,9181,712,8
6.6.1,mac,0,2/15/23,16:20:58,12345,1,1,experiment,7,dispFeedback_noU,1000,1,91,IEV,POS,1,110,0.453534801,50.04513549,1,0.75982514,91,15,5,3,0,15,0,6,33,24,5,26,0,3631,9182,713,1
6.6.1,mac,0,2/15/23,16:20:58,12345,1,1,experiment,7,experiment_noU,380,1,42,IEV,POS,1,,,,,,42,15,5,3,0,15,0,6,33,24,5,26,0,3631,9182,713,1
6.6.1,mac,0,2/15/23,16:20:58,12345,1,1,experiment,7,dispFeedback_noU,1000,1,42,IEV,POS,1,119,0.432855599,51.33445414,1,0.686142995,42,15,5,3,0,15,0,6,33,25,5,26,0,3730,9183,714,1
6.6.1,mac,0,2/15/23,16:20:58,12345,1,1,experiment,7,experiment_noU,3004,1,94,IEV,POS,1,,,,,,94,15,5,3,0,15,0,6,33,25,5,26,0,3730,9183,714,1
6.6.1,mac,0,2/15/23,16:20:58,12345,1,1,experiment,7,dispFeedback_noU,1000,1,94,IEV,POS,1,134,0.386329162,51.90198649,134,0.042034632,94,15,5,3,0,15,0,6,33,26,5,26,2,3954,9317,723,9
6.6.1,mac,0,2/15/23,16:20:58,12345,1,1,experiment,7,experiment_U,1296,1,29,IEV,POS,1,,,,,,29,15,5,3,0,15,0,6,33,26,5,26,2,3954,9317,723,9
6.6.1,mac,0,2/15/23,16:20:58,12345,1,1,experiment,7,dispFeedback_U,1000,1,29,IEV,POS,1,136,0.377676344,51.4703837,1,0.702313048,29,15,5,3,1,15,1,6,33,27,5,26,2,3996,9318,724,1
6.6.1,mac,0,2/15/23,16:20:58,12345,1,1,experiment,7,experiment_U,4585,1,66,IEV,POS,1,,,,,,66,15,5,3,1,15,1,6,33,27,5,26,2,3996,9318,724,1
6.6.1,mac,0,2/15/23,16:20:58,12345,1,1,experiment,7,dispFeedback_U,1000,1,66,IEV,POS,1,157,0.349271021,54.98385286,1,0.741986909,66,15,5,3,2,15,2,6,33,28,5,26,2,4135,9319,725,1
6.6.1,mac,0,2/15/23,16:20:58,12345,1,1,experiment,7,experiment_U,3360,1,91,IEV,POS,1,,,,,,91,15,5,3,2,15,2,6,33,28,5,26,2,4135,9319,725,1
6.6.1,mac,0,2/15/23,16:20:58,12345,1,1,experiment,7,dispFeedback_U,1000,1,91,IEV,POS,1,152,0.344205488,52.37710799,1,0.89070461,91,15,5,3,3,15,3,6,33,29,5,26,2,4160,9320,726,1
6.6.1,mac,0,2/15/23,16:20:58,12345,1,1,experiment,7,experiment_U,4743,1,63,IEV,POS,1,,,,,,63,15,5,3,3,15,3,6,33,29,5,26,2,4160,9320,726,1
6.6.1,mac,0,2/15/23,16:20:58,12345,1,1,experiment,7,dispFeedback_U,1000,1,63,IEV,POS,1,157,0.347648483,54.68352732,1,0.835947733,63,15,5,3,4,15,4,6,33,30,5,26,0,4143,9321,727,1
6.6.1,mac,0,2/15/23,16:20:58,12345,1,1,experiment,7,experiment_noU,536,1,46,IEV,POS,1,,,,,,46,15,5,3,4,15,4,6,33,30,5,26,0,4143,9321,727,1
6.6.1,mac,0,2/15/23,16:20:58,12345,1,1,experiment,7,dispFeedback_noU,1000,1,46,IEV,POS,1,153,0.359239929,55.04675471,153,0.229309352,46,15,5,3,4,15,4,6,33,31,5,26,0,4086,9474,737,10
6.6.1,mac,0,2/15/23,16:20:58,12345,1,1,experiment,7,experiment_noU,3026,1,1,IEV,POS,1,,,,,,1,15,5,3,4,15,4,6,33,31,5,26,0,4086,9474,737,10
6.6.1,mac,0,2/15/23,16:20:58,12345,1,1,experiment,7,dispFeedback_noU,1000,1,1,IEV,POS,1,173,0.310971385,53.85637233,1,0.696923258,1,15,5,3,4,15,4,6,33,32,5,26,0,4326,9475,738,1
6.6.1,mac,0,2/15/23,16:20:58,12345,1,1,experiment,7,experiment_noU,3847,1,82,IEV,POS,1,,,,,,82,15,5,3,4,15,4,6,33,32,5,26,0,4326,9475,738,1
6.6.1,mac,0,2/15/23,16:20:58,12345,1,1,experiment,7,dispFeedback_noU,1000,1,82,IEV,POS,1,159,0.336735711,53.65917494,1,0.473160354,82,15,5,3,4,15,4,6,33,33,5,26,0,4197,9476,739,1
6.6.1,mac,0,2/15/23,16:20:58,12345,1,1,experiment,8,experiment_noU,2651,1,8,DEV,POS,1,,,,,,8,25,1,0,0,0,0,7,42,0,11,24,0,4197,9476,739,1
6.6.1,mac,0,2/15/23,16:20:58,12345,1,1,experiment,8,dispFeedback_noU,1000,1,8,DEV,POS,1,86,0.255214423,21.99283023,1,0.775368579,8,25,1,0,0,0,0,7,42,1,11,24,0,4301,9477,740,1
6.6.1,mac,0,2/15/23,16:20:58,12345,1,1,experiment,8,experiment_noU,3423,1,87,DEV,POS,1,,,,,,87,25,1,0,0,0,0,7,42,1,11,24,0,4301,9477,740,1
6.6.1,mac,0,2/15/23,16:20:58,12345,1,1,experiment,8,dispFeedback_noU,1000,1,87,DEV,POS,1,88,0.278441895,24.39206539,1,0.336912881,87,25,1,0,0,0,0,7,42,2,11,24,0,4023,9478,741,1
6.6.1,mac,0,2/15/23,16:20:58,12345,1,1,experiment,8,experiment_noU,3302,1,90,DEV,POS,1,,,,,,90,25,1,0,0,0,0,7,42,2,11,24,0,4023,9478,741,1
6.6.1,mac,0,2/15/23,16:20:58,12345,1,1,experiment,8,dispFeedback_noU,1000,1,90,DEV,POS,1,87,0.276099071,23.92763142,87,0.175410658,90,25,1,0,0,0,0,7,42,3,11,24,0,4052,9565,747,6
6.6.1,mac,0,2/15/23,16:20:58,12345,1,1,experiment,8,experiment_noU,751,1,39,DEV,POS,1,,,,,,39,25,1,0,0,0,0,7,42,3,11,24,0,4052,9565,747,6
6.6.1,mac,0,2/15/23,16:20:58,12345,1,1,experiment,8,dispFeedback_noU,1000,1,39,DEV,POS,1,88,0.284194565,25.13654754,88,0.041192914,39,25,1,0,0,0,0,7,42,4,11,24,0,3951,9653,753,6
6.6.1,mac,0,2/15/23,16:20:58,12345,1,1,experiment,8,experiment_noU,1824,1,3,DEV,POS,1,,,,,,3,25,1,0,0,0,0,7,42,4,11,24,0,3951,9653,753,6
6.6.1,mac,0,2/15/23,16:20:58,12345,1,1,experiment,8,dispFeedback_noU,1000,1,3,DEV,POS,1,82,0.34074348,27.85532571,1,0.426836845,3,25,1,0,0,0,0,7,42,5,11,24,0,3224,9654,754,1
6.6.1,mac,0,2/15/23,16:20:58,12345,1,1,experiment,8,experiment_noU,1700,1,77,DEV,POS,1,,,,,,77,25,1,0,0,0,0,7,42,5,11,24,0,3224,9654,754,1
6.6.1,mac,0,2/15/23,16:20:58,12345,1,1,experiment,8,dispFeedback_noU,1000,1,77,DEV,POS,1,77,0.497438509,38.42237934,1,0.689177671,77,25,1,0,0,0,0,7,42,6,11,24,0,1800,9655,755,1
6.6.1,mac,0,2/15/23,16:20:58,12345,1,1,experiment,8,experiment_noU,336,1,60,DEV,POS,1,,,,,,60,25,1,0,0,0,0,7,42,6,11,24,0,1800,9655,755,1
6.6.1,mac,0,2/15/23,16:20:58,12345,1,1,experiment,8,dispFeedback_noU,1000,1,60,DEV,POS,1,84,0.229112813,19.18319675,1,0.936271086,60,25,1,0,0,0,0,7,42,7,11,24,0,4586,9656,756,1
6.6.1,mac,0,2/15/23,16:20:58,12345,1,1,experiment,8,experiment_noU,2944,1,93,DEV,POS,1,,,,,,93,25,1,0,0,0,0,7,42,7,11,24,0,4586,9656,756,1
6.6.1,mac,0,2/15/23,16:20:58,12345,1,1,experiment,8,dispFeedback_noU,1000,1,93,DEV,POS,1,82,0.292603015,24.05654108,82,0.197620105,93,25,1,0,0,0,0,7,42,8,11,24,0,3844,9738,762,6
6.6.1,mac,0,2/15/23,16:20:58,12345,1,1,experiment,8,experiment_noU,2984,1,91,DEV,POS,1,,,,,,91,25,1,0,0,0,0,7,42,8,11,24,0,3844,9738,762,6
6.6.1,mac,0,2/15/23,16:20:58,12345,1,1,experiment,8,dispFeedback_noU,1000,1,91,DEV,POS,1,84,0.297261735,24.99457165,1,0.751206315,91,25,1,0,0,0,0,7,42,9,11,24,0,3784,9739,763,1
6.6.1,mac,0,2/15/23,16:20:58,12345,1,1,experiment,8,experiment_noU,384,1,48,DEV,POS,1,,,,,,48,25,1,0,0,0,0,7,42,9,11,24,0,3784,9739,763,1
6.6.1,mac,0,2/15/23,16:20:58,12345,1,1,experiment,8,dispFeedback_noU,1000,1,48,DEV,POS,1,90,0.277555092,24.87594674,1,0.822032799,48,25,1,0,0,0,0,7,42,10,11,24,0,4034,9740,764,1
6.6.1,mac,0,2/15/23,16:20:58,12345,1,1,experiment,8,experiment_noU,4127,1,72,DEV,POS,1,,,,,,72,25,1,0,0,0,0,7,42,10,11,24,0,4034,9740,764,1
6.6.1,mac,0,2/15/23,16:20:58,12345,1,1,experiment,8,dispFeedback_noU,1000,1,72,DEV,POS,1,85,0.282127119,23.84090436,85,0.118362897,72,25,1,0,0,0,0,7,42,11,11,24,1,3977,9825,770,6
6.6.1,mac,0,2/15/23,16:20:58,12345,1,1,experiment,8,experiment_U,633,1,45,DEV,POS,1,,,,,,45,25,1,0,0,0,0,7,42,11,11,24,1,3977,9825,770,6
6.6.1,mac,0,2/15/23,16:20:58,12345,1,1,experiment,8,dispFeedback_U,1000,1,45,DEV,POS,1,81,0.269465974,21.78153474,1,0.956334844,45,25,1,0,0,1,0,7,42,12,11,24,1,4133,9826,771,1
6.6.1,mac,0,2/15/23,16:20:58,12345,1,1,experiment,8,experiment_U,2381,1,12,DEV,POS,1,,,,,,12,25,1,0,0,1,0,7,42,12,11,24,1,4133,9826,771,1
6.6.1,mac,0,2/15/23,16:20:58,12345,1,1,experiment,8,dispFeedback_U,1000,1,12,DEV,POS,1,80,0.261241193,20.90790878,1,0.465017579,12,25,1,0,0,2,0,7,42,13,11,24,1,4231,9827,772,1
6.6.1,mac,0,2/15/23,16:20:58,12345,1,1,experiment,8,experiment_U,380,1,63,DEV,POS,1,,,,,,63,25,1,0,0,2,0,7,42,13,11,24,1,4231,9827,772,1
6.6.1,mac,0,2/15/23,16:20:58,12345,1,1,experiment,8,dispFeedback_U,1000,1,63,DEV,POS,1,88,0.209662813,18.46890445,88,0.172799127,63,25,1,0,0,3,0,7,42,14,11,24,1,4780,9915,778,6
6.6.1,mac,0,2/15/23,16:20:58,12345,1,1,experiment,8,experiment_U,330,1,38,DEV,POS,1,,,,,,38,25,1,0,0,3,0,7,42,14,11,24,1,4780,9915,778,6
6.6.1,mac,0,2/15/23,16:20:58,12345,1,1,experiment,8,dispFeedback_U,1000,1,38,DEV,POS,1,79,0.320640118,25.4526259,1,0.843362446,38,25,1,0,0,4,0,7,42,15,11,24,1,3480,9916,779,1
6.6.1,mac,0,2/15/23,16:20:58,12345,1,1,experiment,8,experiment_U,267,1,20,DEV,POS,1,,,,,,20,25,1,0,0,4,0,7,42,15,11,24,1,3480,9916,779,1
6.6.1,mac,0,2/15/23,16:20:58,12345,1,1,experiment,8,dispFeedback_U,1000,1,20,DEV,POS,1,83,0.405329136,33.54586829,1,0.841493469,20,25,1,1,0,5,0,7,42,16,11,24,1,2517,9917,780,1
6.6.1,mac,0,2/15/23,16:20:58,12345,1,1,experiment,8,experiment_U,240,1,41,DEV,POS,1,,,,,,41,25,1,1,0,5,0,7,42,16,11,24,1,2517,9917,780,1
6.6.1,mac,0,2/15/23,16:20:58,12345,1,1,experiment,8,dispFeedback_U,1000,1,41,DEV,POS,1,80,0.316020946,25.13099234,1,0.411781834,41,25,1,1,0,6,0,7,42,17,11,24,1,3540,9918,781,1
6.6.1,mac,0,2/15/23,16:20:58,12345,1,1,experiment,8,experiment_U,308,1,41,DEV,POS,1,,,,,,41,25,1,1,0,6,0,7,42,17,11,24,1,3540,9918,781,1
6.6.1,mac,0,2/15/23,16:20:58,12345,1,1,experiment,8,dispFeedback_U,1000,1,41,DEV,POS,1,80,0.310801064,24.76534066,1,0.422824152,41,25,1,1,0,7,0,7,42,18,11,24,1,3608,9919,782,1
6.6.1,mac,0,2/15/23,16:20:58,12345,1,1,experiment,8,experiment_U,918,1,66,DEV,POS,1,,,,,,66,25,1,1,0,7,0,7,42,18,11,24,1,3608,9919,782,1
6.6.1,mac,0,2/15/23,16:20:58,12345,1,1,experiment,8,dispFeedback_U,1000,1,66,DEV,POS,1,66,0.772774638,50.71757171,66,0.252943548,66,25,1,1,0,8,0,7,42,19,11,24,1,468,9985,787,5
6.6.1,mac,0,2/15/23,16:20:58,12345,1,1,experiment,8,experiment_U,303,1,15,DEV,POS,1,,,,,,15,25,1,1,0,8,0,7,42,19,11,24,1,468,9985,787,5
6.6.1,mac,0,2/15/23,16:20:58,12345,1,1,experiment,8,dispFeedback_U,1000,1,15,DEV,POS,1,77,0.429342154,33.09097576,77,0.397163491,15,25,1,2,0,9,0,7,42,20,11,24,1,2303,10062,793,6
6.6.1,mac,0,2/15/23,16:20:58,12345,1,1,experiment,8,experiment_U,306,1,31,DEV,POS,1,,,,,,31,25,1,2,0,9,0,7,42,20,11,24,1,2303,10062,793,6
6.6.1,mac,0,2/15/23,16:20:58,12345,1,1,experiment,8,dispFeedback_U,1000,1,31,DEV,POS,1,82,0.350383844,28.88681451,1,0.380023266,31,25,1,2,0,10,0,7,42,21,11,24,1,3106,10063,794,1
6.6.1,mac,0,2/15/23,16:20:58,12345,1,1,experiment,8,experiment_U,242,1,96,DEV,POS,1,,,,,,96,25,1,2,0,10,0,7,42,21,11,24,1,3106,10063,794,1
6.6.1,mac,0,2/15/23,16:20:58,12345,1,1,experiment,8,dispFeedback_U,1000,1,96,DEV,POS,1,72,0.585664401,42.14964871,72,0.050866174,96,25,1,2,0,11,0,7,42,22,11,24,1,1292,10135,799,5
6.6.1,mac,0,2/15/23,16:20:58,12345,1,1,experiment,8,experiment_U,311,1,30,DEV,POS,1,,,,,,30,25,1,2,0,11,0,7,42,22,11,24,1,1292,10135,799,5
6.6.1,mac,0,2/15/23,16:20:58,12345,1,1,experiment,8,dispFeedback_U,1000,1,30,DEV,POS,1,85,0.354147965,30.2174632,85,0.089019841,30,25,1,2,0,12,0,7,42,23,11,24,1,3061,10220,805,6
6.6.1,mac,0,2/15/23,16:20:58,12345,1,1,experiment,8,experiment_U,281,1,99,DEV,POS,1,,,,,,99,25,1,2,0,12,0,7,42,23,11,24,1,3061,10220,805,6
6.6.1,mac,0,2/15/23,16:20:58,12345,1,1,experiment,8,dispFeedback_U,1000,1,99,DEV,POS,1,78,0.550408539,42.86327833,78,0.317801989,99,25,1,2,0,13,0,7,42,24,11,24,1,1481,10298,811,6
6.6.1,mac,0,2/15/23,16:20:58,12345,1,1,experiment,8,experiment_U,267,1,26,DEV,POS,1,,,,,,26,25,1,2,0,13,0,7,42,24,11,24,1,1481,10298,811,6
6.6.1,mac,0,2/15/23,16:20:58,12345,1,1,experiment,8,dispFeedback_U,1000,1,26,DEV,POS,1,86,0.375637849,32.17474767,86,0.077882357,26,25,1,3,0,14,0,7,42,25,11,24,1,2817,10384,817,6
6.6.1,mac,0,2/15/23,16:20:58,12345,1,1,experiment,8,experiment_U,286,1,90,DEV,POS,1,,,,,,90,25,1,3,0,14,0,7,42,25,11,24,1,2817,10384,817,6
6.6.1,mac,0,2/15/23,16:20:58,12345,1,1,experiment,8,dispFeedback_U,1000,1,90,DEV,POS,1,78,0.638084622,49.51114822,78,0.137877187,90,25,1,3,0,15,0,7,42,26,11,24,1,1036,10462,823,6
6.6.1,mac,0,2/15/23,16:20:58,12345,1,1,experiment,8,experiment_U,273,1,45,DEV,POS,1,,,,,,45,25,1,3,0,15,0,7,42,26,11,24,1,1036,10462,823,6
6.6.1,mac,0,2/15/23,16:20:58,12345,1,1,experiment,8,dispFeedback_U,1000,1,45,DEV,POS,1,84,0.298112476,25.05878204,84,0.144939456,45,25,1,3,0,16,0,7,42,27,11,24,1,3773,10546,829,6
6.6.1,mac,0,2/15/23,16:20:58,12345,1,1,experiment,8,experiment_U,292,1,5,DEV,POS,1,,,,,,5,25,1,3,0,16,0,7,42,27,11,24,1,3773,10546,829,6
6.6.1,mac,0,2/15/23,16:20:58,12345,1,1,experiment,8,dispFeedback_U,1000,1,5,DEV,POS,1,74,0.498669256,37.00545198,1,0.966724877,5,25,1,3,0,17,0,7,42,28,11,24,1,1792,10547,830,1
6.6.1,mac,0,2/15/23,16:20:58,12345,1,1,experiment,8,experiment_U,246,1,39,DEV,POS,1,,,,,,39,25,1,3,0,17,0,7,42,28,11,24,1,1792,10547,830,1
6.6.1,mac,0,2/15/23,16:20:58,12345,1,1,experiment,8,dispFeedback_U,1000,1,39,DEV,POS,1,87,0.323267419,28.22092015,87,0.054953967,39,25,1,3,0,18,0,7,42,29,11,24,1,3446,10634,836,6
6.6.1,mac,0,2/15/23,16:20:58,12345,1,1,experiment,8,experiment_U,235,1,97,DEV,POS,1,,,,,,97,25,1,3,0,18,0,7,42,29,11,24,1,3446,10634,836,6
6.6.1,mac,0,2/15/23,16:20:58,12345,1,1,experiment,8,dispFeedback_U,1000,1,97,DEV,POS,1,71,0.577386033,41.09978765,71,0.288757238,97,25,1,3,0,19,0,7,42,30,11,24,1,1335,10705,841,5
6.6.1,mac,0,2/15/23,16:20:58,12345,1,1,experiment,8,experiment_U,256,1,58,DEV,POS,1,,,,,,58,25,1,3,0,19,0,7,42,30,11,24,1,1335,10705,841,5
6.6.1,mac,0,2/15/23,16:20:58,12345,1,1,experiment,8,dispFeedback_U,1000,1,58,DEV,POS,1,86,0.245907708,21.24192983,1,0.648347236,58,25,1,3,0,20,0,7,42,31,11,24,1,4406,10706,842,1
6.6.1,mac,0,2/15/23,16:20:58,12345,1,1,experiment,8,experiment_U,229,1,4,DEV,POS,1,,,,,,4,25,1,3,0,20,0,7,42,31,11,24,1,4406,10706,842,1
6.6.1,mac,0,2/15/23,16:20:58,12345,1,1,experiment,8,dispFeedback_U,1000,1,4,DEV,POS,1,74,0.516582581,38.09504932,74,0.243114218,4,25,1,3,0,21,0,7,42,32,11,24,2,1679,10780,847,5
6.6.1,mac,0,2/15/23,16:20:58,12345,1,1,experiment,8,experiment_U,235,1,3,DEV,POS,1,,,,,,3,25,1,3,0,21,0,7,42,32,11,24,2,1679,10780,847,5
6.6.1,mac,0,2/15/23,16:20:58,12345,1,1,experiment,8,dispFeedback_U,1000,1,3,DEV,POS,1,77,0.523828474,40.10308831,1,0.946830436,3,25,1,3,0,21,1,7,42,33,11,24,2,1635,10781,848,1
6.6.1,mac,0,2/15/23,16:20:58,12345,1,1,experiment,8,experiment_U,208,1,16,DEV,POS,1,,,,,,16,25,1,3,0,21,1,7,42,33,11,24,2,1635,10781,848,1
6.6.1,mac,0,2/15/23,16:20:58,12345,1,1,experiment,8,dispFeedback_U,1000,1,16,DEV,POS,1,84,0.434736995,36.48429648,84,0.173366111,16,25,1,3,0,21,2,7,42,34,11,24,2,2258,10865,854,6
6.6.1,mac,0,2/15/23,16:20:58,12345,1,1,experiment,8,experiment_U,246,1,21,DEV,POS,1,,,,,,21,25,1,3,0,21,2,7,42,34,11,24,2,2258,10865,854,6
6.6.1,mac,0,2/15/23,16:20:58,12345,1,1,experiment,8,dispFeedback_U,1000,1,21,DEV,POS,1,78,0.402270281,31.31746043,1,0.787491876,21,25,1,3,0,21,3,7,42,35,11,24,2,2546,10866,855,1
6.6.1,mac,0,2/15/23,16:20:58,12345,1,1,experiment,8,experiment_U,203,1,4,DEV,POS,1,,,,,,4,25,1,3,0,21,3,7,42,35,11,24,2,2546,10866,855,1
6.6.1,mac,0,2/15/23,16:20:58,12345,1,1,experiment,8,dispFeedback_U,1000,1,4,DEV,POS,1,75,0.520845715,38.8730407,1,0.732194126,4,25,1,3,0,21,4,7,42,36,11,24,2,1653,10867,856,1
6.6.1,mac,0,2/15/23,16:20:58,12345,1,1,experiment,8,experiment_U,225,1,82,DEV,POS,1,,,,,,82,25,1,3,0,21,4,7,42,36,11,24,2,1653,10867,856,1
6.6.1,mac,0,2/15/23,16:20:58,12345,1,1,experiment,8,dispFeedback_U,1000,1,82,DEV,POS,1,71,0.745584161,52.56891334,71,0.483899812,82,25,1,3,0,21,5,7,42,37,11,24,2,575,10938,861,5
6.6.1,mac,0,2/15/23,16:20:58,12345,1,1,experiment,8,experiment_U,183,1,9,DEV,POS,1,,,,,,9,25,1,3,0,21,5,7,42,37,11,24,2,575,10938,861,5
6.6.1,mac,0,2/15/23,16:20:58,12345,1,1,experiment,8,dispFeedback_U,1000,1,9,DEV,POS,1,80,0.484956402,38.58655898,1,0.801614487,9,25,1,3,0,21,6,7,42,38,11,24,2,1883,10939,862,1
6.6.1,mac,0,2/15/23,16:20:58,12345,1,1,experiment,8,experiment_U,223,1,9,DEV,POS,1,,,,,,9,25,1,3,0,21,6,7,42,38,11,24,2,1883,10939,862,1
6.6.1,mac,0,2/15/23,16:20:58,12345,1,1,experiment,8,dispFeedback_U,1000,1,9,DEV,POS,1,81,0.479125319,38.67535019,1,0.954959509,9,25,1,3,0,21,7,7,42,39,11,24,2,1923,10940,863,1
6.6.1,mac,0,2/15/23,16:20:58,12345,1,1,experiment,8,experiment_U,212,1,61,DEV,POS,1,,,,,,61,25,1,3,0,21,7,7,42,39,11,24,2,1923,10940,863,1
6.6.1,mac,0,2/15/23,16:20:58,12345,1,1,experiment,8,dispFeedback_U,1000,1,61,DEV,POS,1,84,0.236154092,19.73945683,1,0.538992211,61,25,1,3,0,21,8,7,42,40,11,24,2,4512,10941,864,1
6.6.1,mac,0,2/15/23,16:20:58,12345,1,1,experiment,8,experiment_U,234,1,6,DEV,POS,1,,,,,,6,25,1,3,0,21,8,7,42,40,11,24,2,4512,10941,864,1
6.6.1,mac,0,2/15/23,16:20:58,12345,1,1,experiment,8,dispFeedback_U,1000,1,6,DEV,POS,1,78,0.49990491,39.08069343,78,0.348920702,6,25,1,3,0,21,9,7,42,41,11,24,2,1784,11019,870,6
6.6.1,mac,0,2/15/23,16:20:58,12345,1,1,experiment,8,experiment_U,270,1,43,DEV,POS,1,,,,,,43,25,1,3,0,21,9,7,42,41,11,24,2,1784,11019,870,6
6.6.1,mac,0,2/15/23,16:20:58,12345,1,1,experiment,8,dispFeedback_U,1000,1,43,DEV,POS,1,84,0.306043541,25.65415576,1,0.492593339,43,25,1,3,0,21,10,7,42,42,11,24,2,3670,11020,871,1
6.6.1,mac,0,2/15/23,16:20:58,12345,1,1,endscreen,10,endscreen,5000,1,43,DEV,POS,1,,,,,,43,25,1,3,0,21,10,7,42,42,11,24,2,3670,11020,871,