build	computer.platform	computer.touch	date	time	subject	group	sessionid	blockcode	blocknum	trialcode	latency	randStart	startPos	scrfunc	rtvspos	randStart	mag	freq	ev	inc	rng	startPos	fogPos1	fogPos2	chooseUncertainty1	chooseUncertainty2	uncertaintyCount1	uncertaintyCount2	blockCount	ntrials	trialCount	uncertaintyStart1	uncertaintyStart2	uncertainty_block	rt_shifted	totalPoints	totalEarnings	Earnings
6.6.1	mac	0	2023-04-27	11:17:45	1	1	1	experiment	1	experiment_noU	2723	1	68	dynamic	POS	1						68	45	50	0	0	0	0	1	300	0	5	25	0		0	0	
6.6.1	mac	0	2023-04-27	11:17:45	1	1	1	experiment	1	dispFeedback_noU	1000	1	68	dynamic	POS	1	157.1800000000000068212	1	157.1800000000000068212	157.1800000000000068212	0.5766120456570321684	68	45	50	0	0	0	0	1	300	1	5	25	0	2373	157.1800000000000068212	5	5
6.6.1	mac	0	2023-04-27	11:17:45	1	1	1	experiment	1	experiment_noU	357	1	98	dynamic	POS	1						98	45	50	0	0	0	0	1	300	1	5	25	0	2373	157.1800000000000068212	5	5
6.6.1	mac	0	2023-04-27	11:17:45	1	1	1	experiment	1	dispFeedback_noU	1000	1	98	dynamic	POS	1	70	1	70	70	0.5170703766674432655	98	45	50	0	0	0	0	1	300	2	5	25	0	1507	227.1800000000000068212	7.5	2.5
6.6.1	mac	0	2023-04-27	11:17:45	1	1	1	experiment	1	experiment_noU	2934	1	82	dynamic	POS	1						82	45	50	0	0	0	0	1	300	2	5	25	0	1507	227.1800000000000068212	7.5	2.5
6.6.1	mac	0	2023-04-27	11:17:45	1	1	1	experiment	1	dispFeedback_noU	1000	1	82	dynamic	POS	1	20.9299999999999997158	1	20.9299999999999997158	20.9299999999999997158	0.2593172428336267266	82	45	50	0	0	0	0	1	300	3	5	25	0	3284	248.1100000000000136424	8	0.5
6.6.1	mac	0	2023-04-27	11:17:45	1	1	1	experiment	1	experiment_noU	1904	1	84	dynamic	POS	1						84	45	50	0	0	0	0	1	300	3	5	25	0	3284	248.1100000000000136424	8	0.5
6.6.1	mac	0	2023-04-27	11:17:45	1	1	1	experiment	1	dispFeedback_noU	1000	1	84	dynamic	POS	1	157.9699999999999988631	1	157.9699999999999988631	157.9699999999999988631	0.6706897098735649099	84	45	50	0	0	0	0	1	300	4	5	25	0	2354	406.0800000000000409273	13	5
6.6.1	mac	0	2023-04-27	11:17:45	1	1	1	experiment	1	experiment_noU	1073	1	39	dynamic	POS	1						39	45	50	0	0	0	0	1	300	4	5	25	0	2354	406.0800000000000409273	13	5
6.6.1	mac	0	2023-04-27	11:17:45	1	1	1	experiment	1	dispFeedback_noU	1000	1	39	dynamic	POS	1	20.8900000000000005684	1	20.8900000000000005684	20.8900000000000005684	0.4765896768021838925	39	45	50	0	0	0	0	1	300	5	5	25	1	4273	426.9700000000000272848	13.5	0.5
6.6.1	mac	0	2023-04-27	11:17:45	1	1	1	experiment	1	experiment_U	837	1	76	dynamic	POS	1						76	45	50	0	0	0	0	1	300	5	5	25	1	4273	426.9700000000000272848	13.5	0.5
6.6.1	mac	0	2023-04-27	11:17:45	1	1	1	experiment	1	dispFeedback_U	1000	1	76	dynamic	POS	1	25.6600000000000001421	1	25.6600000000000001421	25.6600000000000001421	0.6291251405210059877	76	45	50	1	0	1	0	1	300	6	5	25	1	887	452.6300000000000522959	14.5	1
6.6.1	mac	0	2023-04-27	11:17:45	1	1	1	experiment	1	experiment_U	466	1	24	dynamic	POS	1						24	45	50	1	0	1	0	1	300	6	5	25	1	887	452.6300000000000522959	14.5	1
6.6.1	mac	0	2023-04-27	11:17:45	1	1	1	experiment	1	dispFeedback_U	1000	1	24	dynamic	POS	1	41.1099999999999994316	1	41.1099999999999994316	41.1099999999999994316	0.1105565161235994992	24	45	50	1	0	2	0	1	300	7	5	25	1	2916	493.7400000000000659384	16	1.5
6.6.1	mac	0	2023-04-27	11:17:45	1	1	1	experiment	1	experiment_U	3102	1	61	dynamic	POS	1						61	45	50	1	0	2	0	1	300	7	5	25	1	2916	493.7400000000000659384	16	1.5
6.6.1	mac	0	2023-04-27	11:17:45	1	1	1	experiment	1	dispFeedback_U	1000	1	61	dynamic	POS	1	149.1299999999999954525	1	149.1299999999999954525	149.1299999999999954525	0.4094798095546383077	61	45	50	1	0	3	0	1	300	8	5	25	1	2402	642.8700000000001182343	21	5
6.6.1	mac	0	2023-04-27	11:17:45	1	1	1	experiment	1	experiment_U	1280	1	95	dynamic	POS	1						95	45	50	1	0	3	0	1	300	8	5	25	1	2402	642.8700000000001182343	21	5
6.6.1	mac	0	2023-04-27	11:17:45	1	1	1	experiment	1	dispFeedback_U	1000	1	95	dynamic	POS	1	155.1800000000000068212	1	155.1800000000000068212	155.1800000000000068212	0.7542398932283371771	95	45	50	1	0	4	0	1	300	9	5	25	1	2280	798.0500000000001818989	26	5
6.6.1	mac	0	2023-04-27	11:17:45	1	1	1	experiment	1	experiment_U	0	1	26	dynamic	POS	1						26	45	50	1	0	4	0	1	300	9	5	25	1	2280	798.0500000000001818989	26	5
