build	computer.platform	computer.touch	date	time	subject	group	sessionid	blockcode	blocknum	trialcode	latency	randStart	startPos	scrfunc	rtvspos	randStart	circleproportion	mag	freq	ev	inc	rng	startPos	n_revolutions	totalPoints
6.6.1	mac	0	2023-01-13	13:54:16	1	1	1	instructions	1	instructions1	384	1	75	DEV	POS	1	0.3300000000000000155						75	0	0
6.6.1	mac	0	2023-01-13	13:54:16	1	1	1	instructions	1	instructions2	140	1	75	DEV	POS	1	0.3300000000000000155						75	0	0
6.6.1	mac	0	2023-01-13	13:54:16	1	1	1	instructions	1	instructions3	186	1	75	DEV	POS	1	0.3300000000000000155						75	0	0
6.6.1	mac	0	2023-01-13	13:54:16	1	1	1	experiment	2	experiment	503	1	71	DEV	POS	1	0.3300000000000000155						71	2373	0
6.6.1	mac	0	2023-01-13	13:54:16	1	1	1	experiment	2	dispFeedback	1000	1	71	DEV	POS	1	0.3300000000000000155	68	0.8161847288200271278	55.1012867249961928451	68	0.5026270652894458957	71	2373	68
6.6.1	mac	0	2023-01-13	13:54:16	1	1	1	experiment	2	experiment	356	1	81	DEV	POS	1	0.3300000000000000155						81	4757	68
6.6.1	mac	0	2023-01-13	13:54:16	1	1	1	experiment	2	dispFeedback	1000	1	81	DEV	POS	1	0.3300000000000000155	66	0.7255352095400995349	47.5303944359974224199	66	0.0293373034869640371	81	4757	134
6.6.1	mac	0	2023-01-13	13:54:16	1	1	1	experiment	2	experiment	421	1	2	DEV	POS	1	0.3300000000000000155						2	7204	134
6.6.1	mac	0	2023-01-13	13:54:16	1	1	1	experiment	2	dispFeedback	1000	1	2	DEV	POS	1	0.3300000000000000155	67	0.5019233431807631485	33.3833247752881590031	67	0.0350305172696315018	2	7204	201
6.6.1	mac	0	2023-01-13	13:54:16	1	1	1	experiment	2	experiment	3506	1	88	DEV	POS	1	0.3300000000000000155						88	12740	201
6.6.1	mac	0	2023-01-13	13:54:16	1	1	1	experiment	2	dispFeedback	1000	1	88	DEV	POS	1	0.3300000000000000155	67	0.2675564305093122153	17.7953931347489380244	0	0.9052562501526568717	88	12740	201
6.6.1	mac	0	2023-01-13	13:54:16	1	1	1	experiment	2	experiment	2243	1	41	DEV	POS	1	0.3300000000000000155						41	17027	201
6.6.1	mac	0	2023-01-13	13:54:16	1	1	1	experiment	2	dispFeedback	1000	1	41	DEV	POS	1	0.3300000000000000155	63	0.7536331518497870752	47.1102137536498375425	63	0.671948888728383209	41	17027	264
6.6.1	mac	0	2023-01-13	13:54:16	1	1	1	experiment	3	experiment	728	1	2	DEV	POS	1	0.3300000000000000155						2	19794	264
6.6.1	mac	0	2023-01-13	13:54:16	1	1	1	experiment	3	dispFeedback	1000	1	2	DEV	POS	1	0.3300000000000000155	68	0.4576266371036246117	30.8947419054232454982	0	0.9653887788218885602	2	19794	264
6.6.1	mac	0	2023-01-13	13:54:16	1	1	1	experiment	3	experiment	1480	1	54	DEV	POS	1	0.3300000000000000155						54	23313	264
6.6.1	mac	0	2023-01-13	13:54:16	1	1	1	experiment	3	dispFeedback	1000	1	54	DEV	POS	1	0.3300000000000000155	61	0.7826173329531926903	47.3568035329718100002	61	0.7367140929532968174	54	23313	325
6.6.1	mac	0	2023-01-13	13:54:16	1	1	1	experiment	3	experiment	2444	1	37	DEV	POS	1	0.3300000000000000155						37	27792	325
6.6.1	mac	0	2023-01-13	13:54:16	1	1	1	experiment	3	dispFeedback	1000	1	37	DEV	POS	1	0.3300000000000000155	63	0.7533805386646967861	47.0944227005129363306	63	0.7221291609392802568	37	27792	388
6.6.1	mac	0	2023-01-13	13:54:16	1	1	1	experiment	3	experiment	760	1	76	DEV	POS	1	0.3300000000000000155						76	30577	388
6.6.1	mac	0	2023-01-13	13:54:16	1	1	1	experiment	3	dispFeedback	1000	1	76	DEV	POS	1	0.3300000000000000155	66	0.6887498860631401376	45.1205583435162296269	0	0.9201853212248964908	76	30577	388
6.6.1	mac	0	2023-01-13	13:54:16	1	1	1	experiment	3	experiment	729	1	28	DEV	POS	1	0.3300000000000000155						28	33331	388
6.6.1	mac	0	2023-01-13	13:54:16	1	1	1	experiment	3	dispFeedback	1000	1	28	DEV	POS	1	0.3300000000000000155	68	0.3284743480976088925	22.1755671200796946607	0	0.5215464279804253867	28	33331	388
6.6.1	mac	0	2023-01-13	13:54:16	1	1	1	endscreen	4	endscreen	1219	1	28	DEV	POS	1	0.3300000000000000155						28	33331	388
