build	computer.platform	computer.touch	date	time	subject	group	sessionid	blockcode	blocknum	trialcode	latency	randStart	startPos	scrfunc	rtvspos	randStart	circleproportion	mag	freq	ev	inc	rng	startPos	n_revolutions	totalPoints
6.6.1	mac	0	2023-01-12	12:12:45	1	1	1	instructions	1	instructions1	556	1	75	DEV	POS	1	0.3300000000000000155						75	0	0
6.6.1	mac	0	2023-01-12	12:12:45	1	1	1	instructions	1	instructions2	213	1	75	DEV	POS	1	0.3300000000000000155						75	0	0
6.6.1	mac	0	2023-01-12	12:12:45	1	1	1	instructions	1	instructions3	269	1	75	DEV	POS	1	0.3300000000000000155						75	0	0
6.6.1	mac	0	2023-01-12	12:12:45	1	1	1	experiment	2	experiment	999	1	63	DEV	POS	1	0.3300000000000000155						63	3171	0
6.6.1	mac	0	2023-01-12	12:12:45	1	1	1	experiment	2	dispFeedback	1000	1	63	DEV	POS	1	0.3300000000000000155	65	0.7907168745884458616	51.0097808024450500852	65	0.0747958088933480397	63	3171	65
6.6.1	mac	0	2023-01-12	12:12:45	1	1	1	experiment	2	experiment	462	1	88	DEV	POS	1	0.3300000000000000155						88	5683	65
6.6.1	mac	0	2023-01-12	12:12:45	1	1	1	experiment	2	dispFeedback	1000	1	88	DEV	POS	1	0.3300000000000000155	62	0.6219642417007738011	38.2575201622581246852	62	0.5581864201366404377	88	5683	127
6.6.1	mac	0	2023-01-12	12:12:45	1	1	1	experiment	2	experiment	699	1	20	DEV	POS	1	0.3300000000000000155						20	8404	127
6.6.1	mac	0	2023-01-12	12:12:45	1	1	1	experiment	2	dispFeedback	1000	1	20	DEV	POS	1	0.3300000000000000155	70	0.3637667528586605581	25.2857192233842944518	70	0.030668045634093706	20	8404	197
6.6.1	mac	0	2023-01-12	12:12:45	1	1	1	experiment	2	experiment	605	1	40	DEV	POS	1	0.3300000000000000155						40	11042	197
6.6.1	mac	0	2023-01-12	12:12:45	1	1	1	experiment	2	dispFeedback	1000	1	40	DEV	POS	1	0.3300000000000000155	64	0.2917450788426451114	18.5289643308321103632	64	0.1538717539873606932	40	11042	261
6.6.1	mac	0	2023-01-12	12:12:45	1	1	1	experiment	2	experiment	661	1	81	DEV	POS	1	0.3300000000000000155						81	13714	261
6.6.1	mac	0	2023-01-12	12:12:45	1	1	1	experiment	2	dispFeedback	1000	1	81	DEV	POS	1	0.3300000000000000155	65	0.6544496093656511082	42.2190700525558995082	65	0.4168115203307968253	81	13714	326
6.6.1	mac	0	2023-01-12	12:12:45	1	1	1	experiment	3	experiment	3415	1	13	DEV	POS	1	0.3300000000000000155						13	19169	326
6.6.1	mac	0	2023-01-12	12:12:45	1	1	1	experiment	3	dispFeedback	1000	1	13	DEV	POS	1	0.3300000000000000155	66	0.8129701890259539709	53.2583301830444639791	66	0.144901145516173252	13	19169	392
6.6.1	mac	0	2023-01-12	12:12:45	1	1	1	experiment	3	experiment	1470	1	42	DEV	POS	1	0.3300000000000000155						42	22656	392
6.6.1	mac	0	2023-01-12	12:12:45	1	1	1	experiment	3	dispFeedback	1000	1	42	DEV	POS	1	0.3300000000000000155	64	0.2054633053709730706	13.0491395831460490484	0	0.3155187974487242419	42	22656	392
6.6.1	mac	0	2023-01-12	12:12:45	1	1	1	experiment	3	experiment	2338	1	22	DEV	POS	1	0.3300000000000000155						22	27024	392
6.6.1	mac	0	2023-01-12	12:12:45	1	1	1	experiment	3	dispFeedback	1000	1	22	DEV	POS	1	0.3300000000000000155	70	0.2190718253695549123	15.227858572883759436	0	0.2796635507325789805	22	27024	392
6.6.1	mac	0	2023-01-12	12:12:45	1	1	1	experiment	3	experiment	403	1	27	DEV	POS	1	0.3300000000000000155						27	29439	392
6.6.1	mac	0	2023-01-12	12:12:45	1	1	1	experiment	3	dispFeedback	1000	1	27	DEV	POS	1	0.3300000000000000155	68	0.3590818815234746442	24.2419062902351534206	0	0.5461039798208754403	27	29439	392
6.6.1	mac	0	2023-01-12	12:12:45	1	1	1	experiment	3	experiment	3010	1	21	DEV	POS	1	0.3300000000000000155						21	34462	392
6.6.1	mac	0	2023-01-12	12:12:45	1	1	1	experiment	3	dispFeedback	1000	1	21	DEV	POS	1	0.3300000000000000155	65	0.8143085245134051853	52.5316970914663841086	65	0.0938343086964064932	21	34462	457
6.6.1	mac	0	2023-01-12	12:12:45	1	1	1	endscreen	4	endscreen	3000	1	21	DEV	POS	1	0.3300000000000000155						21	34462	457
