build	computer.platform	computer.touch	date	time	subject	group	sessionid	blockcode	blocknum	trialcode	latency	randStart	startPos	scrfunc	rtvspos	randStart	mag	freq	ev	inc	rng	startPos	fogPos1	windPos2	chooseFog1	chooseWind2	choose_unc_att1	choose_unc_att2	unc_att_count1	unc_att_count2	chooseAttentionalControl	chooseUncertainty	blockCount	ntrials	trialCount	meta_trialCount	attentional_control	local_uncertainty	unc_att_start1	unc_att_start2	unc_att_block	rt_shifted	totalPoints	totalEarnings	Earnings
6.6.1	mac	0	2023-05-12	14:21:57	1	1	1	instructions	1	instructions4	2731	1	75	dynamic	POS	1						75	0	0	0	0	0	0	0	0	0	0	0	10	0	0	cloud	wind	0	0	0		0	0	
6.6.1	mac	0	2023-05-12	14:21:57	1	1	1	instructions	1	sampleResponse	3000	1	75	dynamic	POS	1						75	0	0	0	0	0	0	0	0	0	0	0	10	0	0	cloud	wind	0	0	0	2731	0	0	
6.6.1	mac	0	2023-05-12	14:21:57	1	1	1	experiment	2	experiment_noU	700	1	35	dynamic	POS	1						35	5	30	0	0	0	0	0	0	0	0	1	38	0	0	cloud	wind	7	27	0	2731	0	0	
6.6.1	mac	0	2023-05-12	14:21:57	1	1	1	experiment	2	dispFeedback_noU	1000	1	35	dynamic	POS	1	56.4600000000000008527	0.6999999999999999556	39.5219999999999984652	1	0.8976411032252109568	35	5	30	0	0	0	0	0	0	0	0	1	38	1	1	cloud	wind	7	27	0	3700	1	0.5	0.5
6.6.1	mac	0	2023-05-12	14:21:57	1	1	1	experiment	2	experiment_noU	494	1	54	dynamic	POS	1						54	5	30	0	0	0	0	0	0	0	0	1	38	1	1	cloud	wind	7	27	0	3700	1	0.5	0.5
6.6.1	mac	0	2023-05-12	14:21:57	1	1	1	experiment	2	dispFeedback_noU	1000	1	54	dynamic	POS	1	148.2199999999999988631	0.6999999999999999556	103.7539999999999906777	148.2199999999999988631	0.5287764560265412195	54	5	30	0	0	0	0	0	0	0	0	1	38	2	2	cloud	wind	7	27	0	4444	149.2199999999999988631	5.5	5
6.6.1	mac	0	2023-05-12	14:21:57	1	1	1	experiment	2	experiment_noU	4472	1	78	dynamic	POS	1						78	5	30	0	0	0	0	0	0	0	0	1	38	2	2	cloud	wind	7	27	0	4444	149.2199999999999988631	5.5	5
6.6.1	mac	0	2023-05-12	14:21:57	1	1	1	experiment	2	dispFeedback_noU	1000	1	78	dynamic	POS	1	167.3700000000000045475	0.6999999999999999556	117.1589999999999918145	167.3700000000000045475	0.0540715854275206978	78	5	30	0	0	0	0	0	0	0	0	1	38	3	3	cloud	wind	7	27	0	4622	316.5900000000000318323	10.5	5
6.6.1	mac	0	2023-05-12	14:21:57	1	1	1	experiment	2	experiment_noU	3714	1	95	dynamic	POS	1						95	5	30	0	0	0	0	0	0	0	0	1	38	3	3	cloud	wind	7	27	0	4622	316.5900000000000318323	10.5	5
6.6.1	mac	0	2023-05-12	14:21:57	1	1	1	experiment	2	dispFeedback_noU	1000	1	95	dynamic	POS	1	163.3400000000000034106	0.6999999999999999556	114.3379999999999938609	1	0.7026238119468614096	95	5	30	0	0	0	0	0	0	0	0	1	38	4	4	cloud	wind	7	27	0	4714	317.5900000000000318323	11	0.5
6.6.1	mac	0	2023-05-12	14:21:57	1	1	1	experiment	2	experiment_noU	3210	1	5	dynamic	POS	1						5	5	30	0	0	0	0	0	0	0	0	1	38	4	4	cloud	wind	7	27	0	4714	317.5900000000000318323	11	0.5
6.6.1	mac	0	2023-05-12	14:21:57	1	1	1	experiment	2	dispFeedback_noU	1000	1	5	dynamic	POS	1	163.4499999999999886313	0.6999999999999999556	114.4149999999999778311	1	0.8086118993369424413	5	5	30	0	0	0	0	0	0	0	0	1	38	5	5	cloud	wind	7	27	0	4710	318.5900000000000318323	11.5	0.5
6.6.1	mac	0	2023-05-12	14:21:57	1	1	1	experiment	2	experiment_noU	1095	1	47	dynamic	POS	1						47	5	30	0	0	0	0	0	0	0	0	1	38	5	5	cloud	wind	7	27	0	4710	318.5900000000000318323	11.5	0.5
6.6.1	mac	0	2023-05-12	14:21:57	1	1	1	experiment	2	dispFeedback_noU	1000	1	47	dynamic	POS	1	166.7400000000000090949	0.6999999999999999556	116.7180000000000035243	166.7400000000000090949	0.1577299223648686577	47	5	30	0	0	0	0	0	0	0	0	1	38	6	6	cloud	wind	7	27	0	4695	485.3300000000000409273	16.5	5
6.6.1	mac	0	2023-05-12	14:21:57	1	1	1	experiment	2	experiment_noU	1624	1	39	dynamic	POS	1						39	5	30	0	0	0	0	0	0	0	0	1	38	6	6	cloud	wind	7	27	0	4695	485.3300000000000409273	16.5	5
6.6.1	mac	0	2023-05-12	14:21:57	1	1	1	experiment	2	dispFeedback_noU	1000	1	39	dynamic	POS	1	133.1399999999999863576	0.6999999999999999556	93.1979999999999790816	1	0.9306337479340456298	39	5	30	0	0	0	0	0	0	0	0	1	38	7	7	cloud	wind	7	27	1	4824	486.3300000000000409273	17	0.5
6.6.1	mac	0	2023-05-12	14:21:57	1	1	1	experiment	2	experiment_U	1781	1	24	dynamic	POS	1						24	5	30	0	0	0	0	0	0	0	0	1	38	7	7	cloud	wind	7	27	1	4824	486.3300000000000409273	17	0.5
6.6.1	mac	0	2023-05-12	14:21:57	1	1	1	experiment	2	dispFeedback_U	1000	1	24	dynamic	POS	1	121.4500000000000028422	0.6999999999999999556	85.0150000000000005684	1	0.7190036947650377819	24	5	30	1	0	1	0	1	0	1	0	1	38	8	8	cloud	wind	7	27	1	4231	487.3300000000000409273	17.5	0.5
6.6.1	mac	0	2023-05-12	14:21:57	1	1	1	experiment	2	experiment_U	3467	1	91	dynamic	POS	1						91	5	30	1	0	1	0	1	0	1	0	1	38	8	8	cloud	wind	7	27	1	4231	487.3300000000000409273	17.5	0.5
6.6.1	mac	0	2023-05-12	14:21:57	1	1	1	experiment	2	dispFeedback_U	1000	1	91	dynamic	POS	1	154.5999999999999943157	0.6999999999999999556	108.2199999999999846523	154.5999999999999943157	0.61264032465700069	91	5	30	1	0	2	0	2	0	1	0	1	38	9	9	cloud	wind	7	27	0	4267	641.9300000000000636646	22.5	5
6.6.1	mac	0	2023-05-12	14:21:57	1	1	1	experiment	2	experiment_noU	349	1	79	dynamic	POS	1						79	5	30	0	0	2	0	2	0	0	0	1	38	9	9	cloud	wind	7	27	0	4267	641.9300000000000636646	22.5	5
6.6.1	mac	0	2023-05-12	14:21:57	1	1	1	experiment	2	dispFeedback_noU	1000	1	79	dynamic	POS	1	17.7100000000000008527	0.6999999999999999556	12.3970000000000002416	17.7100000000000008527	0.3056580811519311047	79	5	30	0	0	2	0	2	0	0	0	1	38	10	10	cloud	wind	7	27	0	549	659.6400000000001000444	23	0.5
6.6.1	mac	0	2023-05-12	14:21:57	1	1	1	experiment	2	experiment_noU	285	1	40	dynamic	POS	1						40	5	30	0	0	2	0	2	0	0	0	1	38	10	10	cloud	wind	7	27	0	549	659.6400000000001000444	23	0.5
6.6.1	mac	0	2023-05-12	14:21:57	1	1	1	experiment	2	dispFeedback_noU	1000	1	40	dynamic	POS	1	46.2299999999999968736	0.6999999999999999556	32.360999999999997101	46.2299999999999968736	0.64496431887265393	40	5	30	0	0	2	0	2	0	0	0	1	38	11	11	cloud	wind	7	27	0	3535	705.8700000000001182343	25	2
6.6.1	mac	0	2023-05-12	14:21:57	1	1	1	experiment	2	experiment_noU	304	1	94	dynamic	POS	1						94	5	30	0	0	2	0	2	0	0	0	1	38	11	11	cloud	wind	7	27	0	3535	705.8700000000001182343	25	2
6.6.1	mac	0	2023-05-12	14:21:57	1	1	1	experiment	2	dispFeedback_noU	1000	1	94	dynamic	POS	1	6.6699999999999999289	0.6999999999999999556	4.668999999999999595	6.6699999999999999289	0.1108205339663709821	94	5	30	0	0	2	0	2	0	0	0	1	38	12	12	cloud	wind	7	27	0	1254	712.540000000000077307	25.5	0.5
6.6.1	mac	0	2023-05-12	14:21:57	1	1	1	experiment	2	experiment_noU	66	1	86	dynamic	POS	1						86	5	30	0	0	2	0	2	0	0	0	1	38	12	12	cloud	wind	7	27	0	1254	712.540000000000077307	25.5	0.5
6.6.1	mac	0	2023-05-12	14:21:57	1	1	1	experiment	2	dispFeedback_noU	1000	1	86	dynamic	POS	1	24.1700000000000017053	0.6999999999999999556	16.9190000000000004832	24.1700000000000017053	0.1089757897679171916	86	5	30	0	0	2	0	2	0	0	0	1	38	13	13	cloud	wind	7	27	0	616	736.7100000000000363798	26.5	1
6.6.1	mac	0	2023-05-12	14:21:57	1	1	1	experiment	2	experiment_noU	126	1	20	dynamic	POS	1						20	5	30	0	0	2	0	2	0	0	0	1	38	13	13	cloud	wind	7	27	0	616	736.7100000000000363798	26.5	1
6.6.1	mac	0	2023-05-12	14:21:57	1	1	1	experiment	2	dispFeedback_noU	1000	1	20	dynamic	POS	1	13.2100000000000008527	0.6999999999999999556	9.2469999999999998863	1	0.8382499122149892345	20	5	30	0	0	2	0	2	0	0	0	1	38	14	14	cloud	wind	7	27	0	2376	737.7100000000000363798	27	0.5
6.6.1	mac	0	2023-05-12	14:21:57	1	1	1	experiment	2	experiment_noU	134	1	47	dynamic	POS	1						47	5	30	0	0	2	0	2	0	0	0	1	38	14	14	cloud	wind	7	27	0	2376	737.7100000000000363798	27	0.5
6.6.1	mac	0	2023-05-12	14:21:57	1	1	1	experiment	2	dispFeedback_noU	1000	1	47	dynamic	POS	1	48.9399999999999977263	0.6999999999999999556	34.2579999999999955662	1	0.8447275526925752676	47	5	30	0	0	2	0	2	0	0	0	1	38	15	15	cloud	wind	7	27	0	3734	738.7100000000000363798	27.5	0.5
6.6.1	mac	0	2023-05-12	14:21:57	1	1	1	experiment	2	experiment_noU	160	1	1	dynamic	POS	1						1	5	30	0	0	2	0	2	0	0	0	1	38	15	15	cloud	wind	7	27	0	3734	738.7100000000000363798	27.5	0.5
6.6.1	mac	0	2023-05-12	14:21:57	1	1	1	experiment	2	dispFeedback_noU	1000	1	1	dynamic	POS	1	9.0300000000000011369	0.6999999999999999556	6.3210000000000006182	9.0300000000000011369	0.0889665906059012301	1	5	30	0	0	2	0	2	0	0	0	1	38	16	16	cloud	wind	7	27	0	1460	747.7400000000000090949	28	0.5
6.6.1	mac	0	2023-05-12	14:21:57	1	1	1	experiment	2	experiment_noU	135	1	37	dynamic	POS	1						37	5	30	0	0	2	0	2	0	0	0	1	38	16	16	cloud	wind	7	27	0	1460	747.7400000000000090949	28	0.5
6.6.1	mac	0	2023-05-12	14:21:57	1	1	1	experiment	2	dispFeedback_noU	1000	1	37	dynamic	POS	1	26.9200000000000017053	0.6999999999999999556	18.8440000000000011937	1	0.9900702242716379331	37	5	30	0	0	2	0	2	0	0	0	1	38	17	17	cloud	wind	7	27	0	3235	748.7400000000000090949	28.5	0.5
6.6.1	mac	0	2023-05-12	14:21:57	1	1	1	experiment	2	experiment_noU	32	1	40	dynamic	POS	1						40	5	30	0	0	2	0	2	0	0	0	1	38	17	17	cloud	wind	7	27	0	3235	748.7400000000000090949	28.5	0.5
6.6.1	mac	0	2023-05-12	14:21:57	1	1	1	experiment	2	dispFeedback_noU	1000	1	40	dynamic	POS	1	23.9699999999999988631	0.6999999999999999556	16.7789999999999999147	1	0.9250300468236744011	40	5	30	0	0	2	0	2	0	0	0	1	38	18	18	cloud	wind	7	27	0	3282	749.7400000000000090949	29	0.5
6.6.1	mac	0	2023-05-12	14:21:57	1	1	1	experiment	2	experiment_noU	109	1	23	dynamic	POS	1						23	5	30	0	0	2	0	2	0	0	0	1	38	18	18	cloud	wind	7	27	0	3282	749.7400000000000090949	29	0.5
6.6.1	mac	0	2023-05-12	14:21:57	1	1	1	experiment	2	dispFeedback_noU	1000	1	23	dynamic	POS	1	10.1600000000000001421	0.6999999999999999556	7.1119999999999992113	10.1600000000000001421	0.6390859264971422427	23	5	30	0	0	2	0	2	0	0	0	1	38	19	19	cloud	wind	7	27	0	2509	759.8999999999999772626	29.5	0.5
6.6.1	mac	0	2023-05-12	14:21:57	1	1	1	experiment	2	experiment_noU	263	1	86	dynamic	POS	1						86	5	30	0	0	2	0	2	0	0	0	1	38	19	19	cloud	wind	7	27	0	2509	759.8999999999999772626	29.5	0.5
6.6.1	mac	0	2023-05-12	14:21:57	1	1	1	experiment	2	dispFeedback_noU	1000	1	86	dynamic	POS	1	21.1200000000000009948	0.6999999999999999556	14.78399999999999892	21.1200000000000009948	0.066367812935814216	86	5	30	0	0	2	0	2	0	0	0	1	38	20	20	cloud	wind	7	27	0	813	781.0199999999999818101	30	0.5
6.6.1	mac	0	2023-05-12	14:21:57	1	1	1	experiment	2	experiment_noU	122	1	24	dynamic	POS	1						24	5	30	0	0	2	0	2	0	0	0	1	38	20	20	cloud	wind	7	27	0	813	781.0199999999999818101	30	0.5
6.6.1	mac	0	2023-05-12	14:21:57	1	1	1	experiment	2	dispFeedback_noU	1000	1	24	dynamic	POS	1	22.0199999999999995737	0.6999999999999999556	15.4139999999999979252	22.0199999999999995737	0.0550949017179885175	24	5	30	0	0	2	0	2	0	0	0	1	38	21	21	cloud	wind	7	27	0	2572	803.0399999999999636202	30.5	0.5
6.6.1	mac	0	2023-05-12	14:21:57	1	1	1	experiment	2	experiment_noU	228	1	36	dynamic	POS	1						36	5	30	0	0	2	0	2	0	0	0	1	38	21	21	cloud	wind	7	27	0	2572	803.0399999999999636202	30.5	0.5
6.6.1	mac	0	2023-05-12	14:21:57	1	1	1	experiment	2	dispFeedback_noU	1000	1	36	dynamic	POS	1	37.4399999999999977263	0.6999999999999999556	26.2079999999999984084	1	0.9807960439894338744	36	5	30	0	0	2	0	2	0	0	0	1	38	22	22	cloud	wind	7	27	0	3278	804.0399999999999636202	31	0.5
6.6.1	mac	0	2023-05-12	14:21:57	1	1	1	experiment	2	experiment_noU	136	1	6	dynamic	POS	1						6	5	30	0	0	2	0	2	0	0	0	1	38	22	22	cloud	wind	7	27	0	3278	804.0399999999999636202	31	0.5
6.6.1	mac	0	2023-05-12	14:21:57	1	1	1	experiment	2	dispFeedback_noU	1000	1	6	dynamic	POS	1	23.6299999999999990052	0.6999999999999999556	16.5409999999999968168	23.6299999999999990052	0.0131278003130871346	6	5	30	0	0	2	0	2	0	0	0	1	38	23	23	cloud	wind	7	27	0	1686	827.6699999999999590727	31.5	0.5
6.6.1	mac	0	2023-05-12	14:21:57	1	1	1	experiment	2	experiment_noU	225	1	38	dynamic	POS	1						38	5	30	0	0	2	0	2	0	0	0	1	38	23	23	cloud	wind	7	27	0	1686	827.6699999999999590727	31.5	0.5
6.6.1	mac	0	2023-05-12	14:21:57	1	1	1	experiment	2	dispFeedback_noU	1000	1	38	dynamic	POS	1	49.6099999999999994316	0.6999999999999999556	34.7269999999999967599	1	0.9039506197217737071	38	5	30	0	0	2	0	2	0	0	0	1	38	24	24	cloud	wind	7	27	0	3375	828.6699999999999590727	32	0.5
6.6.1	mac	0	2023-05-12	14:21:57	1	1	1	experiment	2	experiment_noU	215	1	6	dynamic	POS	1						6	5	30	0	0	2	0	2	0	0	0	1	38	24	24	cloud	wind	7	27	0	3375	828.6699999999999590727	32	0.5
6.6.1	mac	0	2023-05-12	14:21:57	1	1	1	experiment	2	dispFeedback_noU	1000	1	6	dynamic	POS	1	25.559999999999998721	0.6999999999999999556	17.89199999999999946	25.559999999999998721	0.0232200752997817651	6	5	30	0	0	2	0	2	0	0	0	1	38	25	25	cloud	wind	7	27	0	1765	854.2299999999999045031	33	1
6.6.1	mac	0	2023-05-12	14:21:57	1	1	1	experiment	2	experiment_noU	236	1	28	dynamic	POS	1						28	5	30	0	0	2	0	2	0	0	0	1	38	25	25	cloud	wind	7	27	0	1765	854.2299999999999045031	33	1
6.6.1	mac	0	2023-05-12	14:21:57	1	1	1	experiment	2	dispFeedback_noU	1000	1	28	dynamic	POS	1	39.6700000000000017053	0.6999999999999999556	27.7689999999999983515	1	0.822596621425495611	28	5	30	0	0	2	0	2	0	0	0	1	38	26	26	cloud	wind	7	27	0	2886	855.2299999999999045031	33.5	0.5
6.6.1	mac	0	2023-05-12	14:21:57	1	1	1	experiment	2	experiment_noU	160	1	23	dynamic	POS	1						23	5	30	0	0	2	0	2	0	0	0	1	38	26	26	cloud	wind	7	27	0	2886	855.2299999999999045031	33.5	0.5
6.6.1	mac	0	2023-05-12	14:21:57	1	1	1	experiment	2	dispFeedback_noU	1000	1	23	dynamic	POS	1	34.5200000000000031264	0.6999999999999999556	24.1640000000000014779	34.5200000000000031264	0.1893583734495002668	23	5	30	0	0	2	0	2	0	0	0	1	38	27	27	cloud	wind	7	27	2	2560	889.7499999999998863132	35	1.5
6.6.1	mac	0	2023-05-12	14:21:57	1	1	1	experiment	2	experiment_U	2679	1	63	dynamic	POS	1						63	5	30	0	0	2	0	2	0	0	0	1	38	27	27	cloud	wind	7	27	2	2560	889.7499999999998863132	35	1.5
6.6.1	mac	0	2023-05-12	14:21:57	1	1	1	experiment	2	dispFeedback_U	1000	1	63	dynamic	POS	1	31.7899999999999991473	0.6999999999999999556	22.252999999999996561	31.7899999999999991473	0.2041376606105216041	63	5	30	0	1	2	1	2	1	0	1	1	38	28	28	cloud	wind	7	27	2	2079	921.5399999999998499334	36	1
6.6.1	mac	0	2023-05-12	14:21:57	1	1	1	experiment	2	experiment_U	3353	1	49	dynamic	POS	1						49	5	30	0	1	2	1	2	1	0	1	1	38	28	28	cloud	wind	7	27	2	2079	921.5399999999998499334	36	1
6.6.1	mac	0	2023-05-12	14:21:57	1	1	1	experiment	2	dispFeedback_U	1000	1	49	dynamic	POS	1	29.9799999999999968736	0.6999999999999999556	20.985999999999997101	29.9799999999999968736	0.3805290705944712193	49	5	30	0	1	2	2	2	2	0	1	1	38	29	29	cloud	wind	7	27	0	2053	951.5199999999998681233	37	1
6.6.1	mac	0	2023-05-12	14:21:57	1	1	1	experiment	2	experiment_noU	593	1	78	dynamic	POS	1						78	5	30	0	0	2	2	2	2	0	0	1	38	29	29	cloud	wind	7	27	0	2053	951.5199999999998681233	37	1
6.6.1	mac	0	2023-05-12	14:21:57	1	1	1	experiment	2	dispFeedback_noU	1000	1	78	dynamic	POS	1	37.0700000000000002842	0.6999999999999999556	25.9489999999999980673	1	0.9119690498132186907	78	5	30	0	0	2	2	2	2	0	0	1	38	30	30	cloud	wind	7	27	0	743	952.5199999999998681233	37.5	0.5
6.6.1	mac	0	2023-05-12	14:21:57	1	1	1	experiment	2	experiment_noU	120	1	33	dynamic	POS	1						33	5	30	0	0	2	2	2	2	0	0	1	38	30	30	cloud	wind	7	27	0	743	952.5199999999998681233	37.5	0.5
6.6.1	mac	0	2023-05-12	14:21:57	1	1	1	experiment	2	dispFeedback_noU	1000	1	33	dynamic	POS	1	50.4799999999999968736	0.6999999999999999556	35.3359999999999985221	50.4799999999999968736	0.5376695204846723142	33	5	30	0	0	2	2	2	2	0	0	1	38	31	31	cloud	wind	7	27	0	3020	1002.9999999999998863132	39.5	2
6.6.1	mac	0	2023-05-12	14:21:57	1	1	1	experiment	2	experiment_noU	113	1	38	dynamic	POS	1						38	5	30	0	0	2	2	2	2	0	0	1	38	31	31	cloud	wind	7	27	0	3020	1002.9999999999998863132	39.5	2
6.6.1	mac	0	2023-05-12	14:21:57	1	1	1	experiment	2	dispFeedback_noU	1000	1	38	dynamic	POS	1	50.4699999999999988631	0.6999999999999999556	35.3289999999999935199	1	0.8484315261823198728	38	5	30	0	0	2	2	2	2	0	0	1	38	32	32	cloud	wind	7	27	0	3263	1003.9999999999998863132	40	0.5
6.6.1	mac	0	2023-05-12	14:21:57	1	1	1	experiment	2	experiment_noU	75	1	92	dynamic	POS	1						92	5	30	0	0	2	2	2	2	0	0	1	38	32	32	cloud	wind	7	27	0	3263	1003.9999999999998863132	40	0.5
6.6.1	mac	0	2023-05-12	14:21:57	1	1	1	experiment	2	dispFeedback_noU	1000	1	92	dynamic	POS	1	38.2400000000000019895	0.6999999999999999556	26.7680000000000006821	38.2400000000000019895	0.3860491813127997496	92	5	30	0	0	2	2	2	2	0	0	1	38	33	33	cloud	wind	7	27	0	925	1042.2399999999997817213	41.5	1.5
6.6.1	mac	0	2023-05-12	14:21:57	1	1	1	experiment	2	experiment_noU	117	1	11	dynamic	POS	1						11	5	30	0	0	2	2	2	2	0	0	1	38	33	33	cloud	wind	7	27	0	925	1042.2399999999997817213	41.5	1.5
6.6.1	mac	0	2023-05-12	14:21:57	1	1	1	experiment	2	dispFeedback_noU	1000	1	11	dynamic	POS	1	43.3100000000000022737	0.6999999999999999556	30.3170000000000001705	1	0.8406631294266933008	11	5	30	0	0	2	2	2	2	0	0	1	38	34	34	cloud	wind	7	27	0	1917	1043.2399999999997817213	42	0.5
6.6.1	mac	0	2023-05-12	14:21:57	1	1	1	experiment	2	experiment_noU	128	1	78	dynamic	POS	1						78	5	30	0	0	2	2	2	2	0	0	1	38	34	34	cloud	wind	7	27	0	1917	1043.2399999999997817213	42	0.5
6.6.1	mac	0	2023-05-12	14:21:57	1	1	1	experiment	2	dispFeedback_noU	1000	1	78	dynamic	POS	1	71.5900000000000034106	0.6999999999999999556	50.1129999999999995453	71.5900000000000034106	0.4315587187725022922	78	5	30	0	0	2	2	2	2	0	0	1	38	35	35	cloud	wind	7	27	0	278	1114.8299999999996998667	44.5	2.5
6.6.1	mac	0	2023-05-12	14:21:57	1	1	1	experiment	2	experiment_noU	104	1	41	dynamic	POS	1						41	5	30	0	0	2	2	2	2	0	0	1	38	35	35	cloud	wind	7	27	0	278	1114.8299999999996998667	44.5	2.5
6.6.1	mac	0	2023-05-12	14:21:57	1	1	1	experiment	2	dispFeedback_noU	1000	1	41	dynamic	POS	1	34.4200000000000017053	0.6999999999999999556	24.0940000000000011937	1	0.9149369464523477991	41	5	30	0	0	2	2	2	2	0	0	1	38	36	36	cloud	wind	7	27	0	3404	1115.8299999999996998667	45	0.5
6.6.1	mac	0	2023-05-12	14:21:57	1	1	1	experiment	2	experiment_noU	114	1	74	dynamic	POS	1						74	5	30	0	0	2	2	2	2	0	0	1	38	36	36	cloud	wind	7	27	0	3404	1115.8299999999996998667	45	0.5
6.6.1	mac	0	2023-05-12	14:21:57	1	1	1	experiment	2	dispFeedback_noU	1000	1	74	dynamic	POS	1	78.2600000000000051159	0.6999999999999999556	54.7820000000000035811	78.2600000000000051159	0.3326015806134328123	74	5	30	0	0	2	2	2	2	0	0	1	38	37	37	cloud	wind	7	27	0	64	1194.0899999999996907718	48	3
6.6.1	mac	0	2023-05-12	14:21:57	1	1	1	experiment	2	experiment_noU	124	1	33	dynamic	POS	1						33	5	30	0	0	2	2	2	2	0	0	1	38	37	37	cloud	wind	7	27	0	64	1194.0899999999996907718	48	3
6.6.1	mac	0	2023-05-12	14:21:57	1	1	1	experiment	2	dispFeedback_noU	1000	1	33	dynamic	POS	1	26.6400000000000005684	0.6999999999999999556	18.6479999999999996874	26.6400000000000005684	0.2318016230668410727	33	5	30	0	0	2	2	2	2	0	0	1	38	38	38	cloud	wind	7	27	0	3024	1220.7299999999997908162	49	1
6.6.1	mac	0	2023-05-12	14:21:57	1	1	1	experiment	2	experiment_noU	197	1	98	dynamic	POS	1						98	5	30	0	0	2	2	2	2	0	0	1	38	38	38	cloud	wind	7	27	0	3024	1220.7299999999997908162	49	1
6.6.1	mac	0	2023-05-12	14:21:57	1	1	1	experiment	2	dispFeedback_noU	1000	1	98	dynamic	POS	1	48.3900000000000005684	0.6999999999999999556	33.8729999999999975557	48.3900000000000005684	0.3778089278791585959	98	5	30	0	0	2	2	2	2	0	0	1	38	39	39	cloud	wind	7	27	0	1347	1269.1199999999998908606	51	2
6.6.1	mac	0	2023-05-12	14:21:57	1	1	1	experiment	3	experiment_noU	75	1	60	dynamic	POS	1						60	15	25	0	0	0	0	0	0	0	0	2	33	0	39	cloud	wind	5	25	0	1347	1269.1199999999998908606	51	2
6.6.1	mac	0	2023-05-12	14:21:57	1	1	1	experiment	3	dispFeedback_noU	1000	1	60	dynamic	POS	1	38.6000000000000014211	0.6999999999999999556	27.0199999999999995737	38.6000000000000014211	0.0822509471518571844	60	15	25	0	0	0	0	0	0	0	0	2	33	1	40	cloud	wind	5	25	0	4325	1307.7199999999997999112	52.5	1.5
6.6.1	mac	0	2023-05-12	14:21:57	1	1	1	experiment	3	experiment_noU	150	1	87	dynamic	POS	1						87	15	25	0	0	0	0	0	0	0	0	2	33	1	40	cloud	wind	5	25	0	4325	1307.7199999999997999112	52.5	1.5
6.6.1	mac	0	2023-05-12	14:21:57	1	1	1	experiment	3	dispFeedback_noU	1000	1	87	dynamic	POS	1	105.730000000000003979	0.6999999999999999556	74.0109999999999956799	105.730000000000003979	0.6456808216510528942	87	15	25	0	0	0	0	0	0	0	0	2	33	2	41	cloud	wind	5	25	0	750	1413.4499999999998181011	56.5	4
6.6.1	mac	0	2023-05-12	14:21:57	1	1	1	experiment	3	experiment_noU	126	1	31	dynamic	POS	1						31	15	25	0	0	0	0	0	0	0	0	2	33	2	41	cloud	wind	5	25	0	750	1413.4499999999998181011	56.5	4
6.6.1	mac	0	2023-05-12	14:21:57	1	1	1	experiment	3	dispFeedback_noU	1000	1	31	dynamic	POS	1	11.6999999999999992895	0.6999999999999999556	8.1899999999999995026	11.6999999999999992895	0.6234695409944908118	31	15	25	0	0	0	0	0	0	0	0	2	33	3	42	cloud	wind	5	25	0	2926	1425.1499999999998635758	57	0.5
6.6.1	mac	0	2023-05-12	14:21:57	1	1	1	experiment	3	experiment_noU	55	1	72	dynamic	POS	1						72	15	25	0	0	0	0	0	0	0	0	2	33	3	42	cloud	wind	5	25	0	2926	1425.1499999999998635758	57	0.5
6.6.1	mac	0	2023-05-12	14:21:57	1	1	1	experiment	3	dispFeedback_noU	1000	1	72	dynamic	POS	1	104.5499999999999971578	0.6999999999999999556	73.1849999999999880629	104.5499999999999971578	0.0508185834742194489	72	15	25	0	0	0	0	0	0	0	0	2	33	4	43	cloud	wind	5	25	0	4905	1529.6999999999998181011	61	4
6.6.1	mac	0	2023-05-12	14:21:57	1	1	1	experiment	3	experiment_noU	99	1	63	dynamic	POS	1						63	15	25	0	0	0	0	0	0	0	0	2	33	4	43	cloud	wind	5	25	0	4905	1529.6999999999998181011	61	4
6.6.1	mac	0	2023-05-12	14:21:57	1	1	1	experiment	3	dispFeedback_noU	1000	1	63	dynamic	POS	1	34.6099999999999994316	0.6999999999999999556	24.2269999999999967599	1	0.8293882833862183945	63	15	25	0	0	0	0	0	0	0	0	2	33	5	44	cloud	wind	5	25	1	4499	1530.6999999999998181011	61.5	0.5
6.6.1	mac	0	2023-05-12	14:21:57	1	1	1	experiment	3	experiment_U	238	1	12	dynamic	POS	1						12	15	25	0	0	0	0	0	0	0	0	2	33	5	44	cloud	wind	5	25	1	4499	1530.6999999999998181011	61.5	0.5
6.6.1	mac	0	2023-05-12	14:21:57	1	1	1	experiment	3	dispFeedback_U	1000	1	12	dynamic	POS	1	11.75	0.6999999999999999556	8.2249999999999996447	11.75	0.3893329597519089025	12	15	25	0	0	0	0	1	0	0	0	2	33	6	45	cloud	wind	5	25	1	2088	1542.4499999999998181011	62	0.5
6.6.1	mac	0	2023-05-12	14:21:57	1	1	1	experiment	3	experiment_U	274	1	68	dynamic	POS	1						68	15	25	0	0	0	0	1	0	0	0	2	33	6	45	cloud	wind	5	25	1	2088	1542.4499999999998181011	62	0.5
6.6.1	mac	0	2023-05-12	14:21:57	1	1	1	experiment	3	dispFeedback_U	1000	1	68	dynamic	POS	1	82.8599999999999994316	0.6999999999999999556	58.0019999999999953388	1	0.9518572373669261788	68	15	25	0	0	0	0	2	0	0	0	2	33	7	46	cloud	wind	5	25	1	4924	1543.4499999999998181011	62.5	0.5
6.6.1	mac	0	2023-05-12	14:21:57	1	1	1	experiment	3	experiment_U	277	1	68	dynamic	POS	1						68	15	25	0	0	0	0	2	0	0	0	2	33	7	46	cloud	wind	5	25	1	4924	1543.4499999999998181011	62.5	0.5
6.6.1	mac	0	2023-05-12	14:21:57	1	1	1	experiment	3	dispFeedback_U	1000	1	68	dynamic	POS	1	72.6400000000000005684	0.6999999999999999556	50.8479999999999989768	1	0.9270048115698166225	68	15	25	0	0	0	0	3	0	0	0	2	33	8	47	cloud	wind	5	25	1	4927	1544.4499999999998181011	63	0.5
6.6.1	mac	0	2023-05-12	14:21:57	1	1	1	experiment	3	experiment_U	263	1	41	dynamic	POS	1						41	15	25	0	0	0	0	3	0	0	0	2	33	8	47	cloud	wind	5	25	1	4927	1544.4499999999998181011	63	0.5
6.6.1	mac	0	2023-05-12	14:21:57	1	1	1	experiment	3	dispFeedback_U	1000	1	41	dynamic	POS	1	9.0299999999999993605	0.6999999999999999556	6.3209999999999988418	9.0299999999999993605	0.4990723492808342709	41	15	25	1	0	1	0	4	0	1	0	2	33	9	48	cloud	wind	5	25	1	3563	1553.4799999999997908162	63.5	0.5
6.6.1	mac	0	2023-05-12	14:21:57	1	1	1	experiment	3	experiment_U	283	1	52	dynamic	POS	1						52	15	25	1	0	1	0	4	0	1	0	2	33	9	48	cloud	wind	5	25	1	3563	1553.4799999999997908162	63.5	0.5
6.6.1	mac	0	2023-05-12	14:21:57	1	1	1	experiment	3	dispFeedback_U	1000	1	52	dynamic	POS	1	26.2699999999999995737	0.6999999999999999556	18.3889999999999993463	1	0.7639326953245170193	52	15	25	0	0	1	0	5	0	0	0	2	33	10	49	cloud	wind	5	25	1	4133	1554.4799999999997908162	64	0.5
6.6.1	mac	0	2023-05-12	14:21:57	1	1	1	experiment	3	experiment_U	317	1	13	dynamic	POS	1						13	15	25	0	0	1	0	5	0	0	0	2	33	10	49	cloud	wind	5	25	1	4133	1554.4799999999997908162	64	0.5
6.6.1	mac	0	2023-05-12	14:21:57	1	1	1	experiment	3	dispFeedback_U	1000	1	13	dynamic	POS	1	5.8899999999999996803	0.6999999999999999556	4.1229999999999993321	1	0.7098931350535464535	13	15	25	0	0	1	0	6	0	0	0	2	33	11	50	cloud	wind	5	25	1	2217	1555.4799999999997908162	64.5	0.5
6.6.1	mac	0	2023-05-12	14:21:57	1	1	1	experiment	3	experiment_U	496	1	48	dynamic	POS	1						48	15	25	0	0	1	0	6	0	0	0	2	33	11	50	cloud	wind	5	25	1	2217	1555.4799999999997908162	64.5	0.5
6.6.1	mac	0	2023-05-12	14:21:57	1	1	1	experiment	3	dispFeedback_U	1000	1	48	dynamic	POS	1	27.1700000000000017053	0.6999999999999999556	19.0189999999999983515	1	0.8491438724680673289	48	15	25	0	0	1	0	7	0	0	0	2	33	12	51	cloud	wind	5	25	1	4146	1556.4799999999997908162	65	0.5
6.6.1	mac	0	2023-05-12	14:21:57	1	1	1	experiment	3	experiment_U	329	1	12	dynamic	POS	1						12	15	25	0	0	1	0	7	0	0	0	2	33	12	51	cloud	wind	5	25	1	4146	1556.4799999999997908162	65	0.5
6.6.1	mac	0	2023-05-12	14:21:57	1	1	1	experiment	3	dispFeedback_U	1000	1	12	dynamic	POS	1	4.8899999999999996803	0.6999999999999999556	3.4229999999999995985	4.8899999999999996803	0.6902141700708805949	12	15	25	0	0	1	0	8	0	0	0	2	33	13	52	cloud	wind	5	25	1	2179	1561.3699999999998908606	65.5	0.5
6.6.1	mac	0	2023-05-12	14:21:57	1	1	1	experiment	3	experiment_U	298	1	76	dynamic	POS	1						76	15	25	0	0	1	0	8	0	0	0	2	33	13	52	cloud	wind	5	25	1	2179	1561.3699999999998908606	65.5	0.5
6.6.1	mac	0	2023-05-12	14:21:57	1	1	1	experiment	3	dispFeedback_U	1000	1	76	dynamic	POS	1	170.5	0.6999999999999999556	119.3499999999999943157	170.5	0.0955455375592097478	76	15	25	0	0	1	0	9	0	0	0	2	33	14	53	cloud	wind	5	25	1	348	1731.8699999999998908606	70.5	5
6.6.1	mac	0	2023-05-12	14:21:57	1	1	1	experiment	3	experiment_U	333	1	45	dynamic	POS	1						45	15	25	0	0	1	0	9	0	0	0	2	33	14	53	cloud	wind	5	25	1	348	1731.8699999999998908606	70.5	5
6.6.1	mac	0	2023-05-12	14:21:57	1	1	1	experiment	3	dispFeedback_U	1000	1	45	dynamic	POS	1	13.3799999999999990052	0.6999999999999999556	9.3659999999999978826	13.3799999999999990052	0.0753981853079512265	45	15	25	0	0	1	0	10	0	0	0	2	33	15	54	cloud	wind	5	25	1	3833	1745.25	71	0.5
6.6.1	mac	0	2023-05-12	14:21:57	1	1	1	experiment	3	experiment_U	365	1	7	dynamic	POS	1						7	15	25	0	0	1	0	10	0	0	0	2	33	15	54	cloud	wind	5	25	1	3833	1745.25	71	0.5
6.6.1	mac	0	2023-05-12	14:21:57	1	1	1	experiment	3	dispFeedback_U	1000	1	7	dynamic	POS	1	8.8399999999999998579	0.6999999999999999556	6.1879999999999997229	1	0.7095500993797438927	7	15	25	0	0	1	0	11	0	0	0	2	33	16	55	cloud	wind	5	25	1	1965	1746.25	71.5	0.5
6.6.1	mac	0	2023-05-12	14:21:57	1	1	1	experiment	3	experiment_U	2461	1	65	dynamic	POS	1						65	15	25	0	0	1	0	11	0	0	0	2	33	16	55	cloud	wind	5	25	1	1965	1746.25	71.5	0.5
6.6.1	mac	0	2023-05-12	14:21:57	1	1	1	experiment	3	dispFeedback_U	1000	1	65	dynamic	POS	1	9.4800000000000004263	0.6999999999999999556	6.6360000000000001208	9.4800000000000004263	0.1707565014182488572	65	15	25	0	0	1	0	12	0	0	0	2	33	17	56	cloud	wind	5	25	1	1961	1755.7300000000000181899	72	0.5
6.6.1	mac	0	2023-05-12	14:21:57	1	1	1	experiment	3	experiment_U	311	1	69	dynamic	POS	1						69	15	25	0	0	1	0	12	0	0	0	2	33	17	56	cloud	wind	5	25	1	1961	1755.7300000000000181899	72	0.5
6.6.1	mac	0	2023-05-12	14:21:57	1	1	1	experiment	3	dispFeedback_U	1000	1	69	dynamic	POS	1	89.1700000000000017053	0.6999999999999999556	62.4189999999999969305	1	0.9450446104037213413	69	15	25	0	0	1	0	13	0	0	0	2	33	18	57	cloud	wind	5	25	1	11	1756.7300000000000181899	72.5	0.5
6.6.1	mac	0	2023-05-12	14:21:57	1	1	1	experiment	3	experiment_U	280	1	74	dynamic	POS	1						74	15	25	0	0	1	0	13	0	0	0	2	33	18	57	cloud	wind	5	25	1	11	1756.7300000000000181899	72.5	0.5
6.6.1	mac	0	2023-05-12	14:21:57	1	1	1	experiment	3	dispFeedback_U	1000	1	74	dynamic	POS	1	108.4300000000000068212	0.6999999999999999556	75.9009999999999962483	108.4300000000000068212	0.6780334947812448609	74	15	25	0	0	1	0	14	0	0	0	2	33	19	58	cloud	wind	5	25	1	230	1865.1600000000000818545	76.5	4
6.6.1	mac	0	2023-05-12	14:21:57	1	1	1	experiment	3	experiment_U	347	1	2	dynamic	POS	1						2	15	25	0	0	1	0	14	0	0	0	2	33	19	58	cloud	wind	5	25	1	230	1865.1600000000000818545	76.5	4
6.6.1	mac	0	2023-05-12	14:21:57	1	1	1	experiment	3	dispFeedback_U	1000	1	2	dynamic	POS	1	42.2199999999999988631	0.6999999999999999556	29.5539999999999984936	42.2199999999999988631	0.6813121916915551024	2	15	25	0	0	1	0	15	0	0	0	2	33	20	59	cloud	wind	5	25	0	1697	1907.3800000000001091394	78	1.5
6.6.1	mac	0	2023-05-12	14:21:57	1	1	1	experiment	3	experiment_noU	299	1	41	dynamic	POS	1						41	15	25	0	0	1	0	15	0	0	0	2	33	20	59	cloud	wind	5	25	0	1697	1907.3800000000001091394	78	1.5
6.6.1	mac	0	2023-05-12	14:21:57	1	1	1	experiment	3	dispFeedback_noU	1000	1	41	dynamic	POS	1	6.2100000000000008527	0.6999999999999999556	4.3470000000000004192	1	0.8467945437521661178	41	15	25	0	0	1	0	15	0	0	0	2	33	21	60	cloud	wind	5	25	0	3599	1908.3800000000001091394	78.5	0.5
6.6.1	mac	0	2023-05-12	14:21:57	1	1	1	experiment	3	experiment_noU	141	1	17	dynamic	POS	1						17	15	25	0	0	1	0	15	0	0	0	2	33	21	60	cloud	wind	5	25	0	3599	1908.3800000000001091394	78.5	0.5
6.6.1	mac	0	2023-05-12	14:21:57	1	1	1	experiment	3	dispFeedback_noU	1000	1	17	dynamic	POS	1	10.5899999999999998579	0.6999999999999999556	7.4129999999999993676	1	0.942798994933906731	17	15	25	0	0	1	0	15	0	0	0	2	33	22	61	cloud	wind	5	25	0	2241	1909.3800000000001091394	79	0.5
6.6.1	mac	0	2023-05-12	14:21:57	1	1	1	experiment	3	experiment_noU	182	1	87	dynamic	POS	1						87	15	25	0	0	1	0	15	0	0	0	2	33	22	61	cloud	wind	5	25	0	2241	1909.3800000000001091394	79	0.5
6.6.1	mac	0	2023-05-12	14:21:57	1	1	1	experiment	3	dispFeedback_noU	1000	1	87	dynamic	POS	1	160.5699999999999931788	0.6999999999999999556	112.3989999999999866986	1	0.826318798080626582	87	15	25	0	0	1	0	15	0	0	0	2	33	23	62	cloud	wind	5	25	0	782	1910.3800000000001091394	79.5	0.5
6.6.1	mac	0	2023-05-12	14:21:57	1	1	1	experiment	3	experiment_noU	204	1	37	dynamic	POS	1						37	15	25	0	0	1	0	15	0	0	0	2	33	23	62	cloud	wind	5	25	0	782	1910.3800000000001091394	79.5	0.5
6.6.1	mac	0	2023-05-12	14:21:57	1	1	1	experiment	3	dispFeedback_noU	1000	1	37	dynamic	POS	1	10.2800000000000011369	0.6999999999999999556	7.1960000000000006182	1	0.9078544813459400453	37	15	25	0	0	1	0	15	0	0	0	2	33	24	63	cloud	wind	5	25	0	3304	1911.3800000000001091394	80	0.5
6.6.1	mac	0	2023-05-12	14:21:57	1	1	1	experiment	3	experiment_noU	243	1	39	dynamic	POS	1						39	15	25	0	0	1	0	15	0	0	0	2	33	24	63	cloud	wind	5	25	0	3304	1911.3800000000001091394	80	0.5
6.6.1	mac	0	2023-05-12	14:21:57	1	1	1	experiment	3	dispFeedback_noU	1000	1	39	dynamic	POS	1	3.2100000000000008527	0.6999999999999999556	2.2470000000000003304	3.2100000000000008527	0.4179847078439744013	39	15	25	0	0	1	0	15	0	0	0	2	33	25	64	cloud	wind	5	25	2	3443	1914.5900000000001455192	80.5	0.5
6.6.1	mac	0	2023-05-12	14:21:57	1	1	1	experiment	3	experiment_U	2168	1	57	dynamic	POS	1						57	15	25	0	0	1	0	15	0	0	0	2	33	25	64	cloud	wind	5	25	2	3443	1914.5900000000001455192	80.5	0.5
6.6.1	mac	0	2023-05-12	14:21:57	1	1	1	experiment	3	dispFeedback_U	1000	1	57	dynamic	POS	1	70.3199999999999931788	0.6999999999999999556	49.2239999999999895408	70.3199999999999931788	0.2403502471838961929	57	15	25	0	0	1	0	15	1	0	0	2	33	26	65	cloud	wind	5	25	2	1268	1984.9100000000000818545	83	2.5
6.6.1	mac	0	2023-05-12	14:21:57	1	1	1	experiment	3	experiment_U	2158	1	71	dynamic	POS	1						71	15	25	0	0	1	0	15	1	0	0	2	33	26	65	cloud	wind	5	25	2	1268	1984.9100000000000818545	83	2.5
6.6.1	mac	0	2023-05-12	14:21:57	1	1	1	experiment	3	dispFeedback_U	1000	1	71	dynamic	POS	1	17.8500000000000014211	0.6999999999999999556	12.4950000000000009948	17.8500000000000014211	0.2749563975434183294	71	15	25	0	0	1	0	15	2	0	0	2	33	27	66	cloud	wind	5	25	2	1958	2002.7599999999999909051	83.5	0.5
6.6.1	mac	0	2023-05-12	14:21:57	1	1	1	experiment	3	experiment_U	1414	1	97	dynamic	POS	1						97	15	25	0	0	1	0	15	2	0	0	2	33	27	66	cloud	wind	5	25	2	1958	2002.7599999999999909051	83.5	0.5
6.6.1	mac	0	2023-05-12	14:21:57	1	1	1	experiment	3	dispFeedback_U	1000	1	97	dynamic	POS	1	21.1000000000000014211	0.6999999999999999556	14.7699999999999995737	21.1000000000000014211	0.4249176397977670883	97	15	25	0	1	1	1	15	3	0	1	2	33	28	67	cloud	wind	5	25	2	2514	2023.8599999999998999556	84	0.5
6.6.1	mac	0	2023-05-12	14:21:57	1	1	1	experiment	3	experiment_U	427	1	77	dynamic	POS	1						77	15	25	0	1	1	1	15	3	0	1	2	33	28	67	cloud	wind	5	25	2	2514	2023.8599999999998999556	84	0.5
6.6.1	mac	0	2023-05-12	14:21:57	1	1	1	experiment	3	dispFeedback_U	1000	1	77	dynamic	POS	1	130.1700000000000159162	0.6999999999999999556	91.1189999999999997726	130.1700000000000159162	0.0159327553156606745	77	15	25	0	0	1	1	15	4	0	0	2	33	29	68	cloud	wind	5	25	2	527	2154.0299999999997453415	88.5	4.5
6.6.1	mac	0	2023-05-12	14:21:57	1	1	1	experiment	3	experiment_U	312	1	74	dynamic	POS	1						74	15	25	0	0	1	1	15	4	0	0	2	33	29	68	cloud	wind	5	25	2	527	2154.0299999999997453415	88.5	4.5
6.6.1	mac	0	2023-05-12	14:21:57	1	1	1	experiment	3	dispFeedback_U	1000	1	74	dynamic	POS	1	102.4699999999999988631	0.6999999999999999556	71.7289999999999992042	1	0.8070270129961489847	74	15	25	0	0	1	1	15	5	0	0	2	33	30	69	cloud	wind	5	25	2	262	2155.0299999999997453415	89	0.5
6.6.1	mac	0	2023-05-12	14:21:57	1	1	1	experiment	3	experiment_U	824	1	71	dynamic	POS	1						71	15	25	0	0	1	1	15	5	0	0	2	33	30	69	cloud	wind	5	25	2	262	2155.0299999999997453415	89	0.5
6.6.1	mac	0	2023-05-12	14:21:57	1	1	1	experiment	3	dispFeedback_U	1000	1	71	dynamic	POS	1	97.6200000000000045475	0.6999999999999999556	68.3340000000000031832	97.6200000000000045475	0.5466658767654247741	71	15	25	0	0	1	1	15	6	0	0	2	33	31	70	cloud	wind	5	25	2	624	2252.6499999999996362021	92.5	3.5
6.6.1	mac	0	2023-05-12	14:21:57	1	1	1	experiment	3	experiment_U	693	1	10	dynamic	POS	1						10	15	25	0	0	1	1	15	6	0	0	2	33	31	70	cloud	wind	5	25	2	624	2252.6499999999996362021	92.5	3.5
6.6.1	mac	0	2023-05-12	14:21:57	1	1	1	experiment	3	dispFeedback_U	1000	1	10	dynamic	POS	1	35.6899999999999977263	0.6999999999999999556	24.9829999999999969873	1	0.7639301430350007305	10	15	25	0	1	1	2	15	7	0	1	2	33	32	71	cloud	wind	5	25	0	2443	2253.6499999999996362021	93	0.5
6.6.1	mac	0	2023-05-12	14:21:57	1	1	1	experiment	3	experiment_noU	378	1	5	dynamic	POS	1						5	15	25	0	0	1	2	15	7	0	0	2	33	32	71	cloud	wind	5	25	0	2443	2253.6499999999996362021	93	0.5
