build	computer.platform	computer.touch	date	time	subject	group	sessionid	blockcode	blocknum	trialcode	latency	randStart	startPos	scrfunc	rtvspos	randStart	circleproportion	mag	freq	ev	inc	rng	startPos	n_revolutions	totalPoints	totalEarnings	Earnings
6.6.1	mac	0	2023-01-18	11:08:55	1	1	1	experiment	1	experiment	1350	1	54	IEV	POS	1	0.3300000000000000155						54	2450	0	0	
6.6.1	mac	0	2023-01-18	11:08:55	1	1	1	experiment	1	dispFeedback	1000	1	54	IEV	POS	1	0.3300000000000000155	16	0.9421607957817880186	14.9073674399695885739	16	0.1664369977466848283	54	2450	16	1	1
6.6.1	mac	0	2023-01-18	11:08:55	1	1	1	experiment	1	experiment	3935	1	9	IEV	POS	1	0.3300000000000000155						9	8418	16	1	1
6.6.1	mac	0	2023-01-18	11:08:55	1	1	1	experiment	1	dispFeedback	1000	1	9	IEV	POS	1	0.3300000000000000155	27	0.9874081679920574395	26.5887840510327571053	27	0.0589901155463862514	9	8418	43	5	4
6.6.1	mac	0	2023-01-18	11:08:55	1	1	1	experiment	1	experiment	993	1	59	IEV	POS	1	0.3300000000000000155						59	11440	43	5	4
6.6.1	mac	0	2023-01-18	11:08:55	1	1	1	experiment	1	dispFeedback	1000	1	59	IEV	POS	1	0.3300000000000000155	14	0.9272179095806145632	13.2683901954774530196	14	0.3514686937796577815	59	11440	57	6	1
6.6.1	mac	0	2023-01-18	11:08:55	1	1	1	experiment	1	experiment	1192	1	53	IEV	POS	1	0.3300000000000000155						53	14656	57	6	1
6.6.1	mac	0	2023-01-18	11:08:55	1	1	1	experiment	1	dispFeedback	1000	1	53	IEV	POS	1	0.3300000000000000155	14	0.9129989515312443293	12.7180008019489871884	14	0.2716125762722484405	53	14656	71	7	1
6.6.1	mac	0	2023-01-18	11:08:55	1	1	1	experiment	1	experiment	1527	1	45	IEV	POS	1	0.3300000000000000155						45	18191	71	7	1
6.6.1	mac	0	2023-01-18	11:08:55	1	1	1	experiment	1	dispFeedback	1000	1	45	IEV	POS	1	0.3300000000000000155	21	0.9038168519877830542	19.0391880708353653517	21	0.5531894852298286924	45	18191	92	9	2
6.6.1	mac	0	2023-01-18	11:08:55	1	1	1	experiment	2	experiment	824	1	61	DEV	POS	1	0.3300000000000000155						61	21038	92	9	2
6.6.1	mac	0	2023-01-18	11:08:55	1	1	1	experiment	2	dispFeedback	1000	1	61	DEV	POS	1	0.3300000000000000155	71	0.8651180447554709385	61.0001683286650120408	71	0.346400306407921077	61	21038	163	16	7
6.6.1	mac	0	2023-01-18	11:08:55	1	1	1	experiment	2	experiment	1382	1	50	DEV	POS	1	0.3300000000000000155						50	24446	163	16	7
6.6.1	mac	0	2023-01-18	11:08:55	1	1	1	experiment	2	dispFeedback	1000	1	50	DEV	POS	1	0.3300000000000000155	71	0.862893729000708376	60.843330037891675488	71	0.4243130605724437787	50	24446	234	23	7
6.6.1	mac	0	2023-01-18	11:08:55	1	1	1	experiment	2	experiment	4526	1	87	DEV	POS	1	0.3300000000000000155						87	30989	234	23	7
6.6.1	mac	0	2023-01-18	11:08:55	1	1	1	experiment	2	dispFeedback	1000	1	87	DEV	POS	1	0.3300000000000000155	70	0.8645616556656460228	60.0963752313003922723	70	0.0361753113186395053	87	30989	304	30	7
6.6.1	mac	0	2023-01-18	11:08:55	1	1	1	experiment	2	experiment	1575	1	46	DEV	POS	1	0.3300000000000000155						46	34588	304	30	7
6.6.1	mac	0	2023-01-18	11:08:55	1	1	1	experiment	2	dispFeedback	1000	1	46	DEV	POS	1	0.3300000000000000155	66	0.8648398244243056254	56.6563516674845928378	66	0.6062753206599214018	46	34588	370	37	7
6.6.1	mac	0	2023-01-18	11:08:55	1	1	1	endscreen	3	endscreen	5000	1	46	DEV	POS	1	0.3300000000000000155						46	34588	370	37	
