build	computer.platform	computer.touch	date	time	subject	group	sessionid	blockcode	blocknum	trialcode	latency	randStart	startPos	scrfunc	rtvspos	randStart	circleproportion	mag	freq	ev	inc	rng	startPos	n_revolutions	totalPoints	totalEarnings	Earnings
6.6.1	mac	0	2023-01-17	11:52:14	1	1	1	instructions	1	instructions1	789	1	75	DEV	POS	1	0.3300000000000000155						75	0	0	0	
6.6.1	mac	0	2023-01-17	11:52:14	1	1	1	instructions	1	displayGoodJob	845	1	75	DEV	POS	1	0.3300000000000000155						75	0	0	0	
6.6.1	mac	0	2023-01-17	11:52:14	1	1	1	instructions	1	instructions3	434	1	75	DEV	POS	1	0.3300000000000000155						75	0	0	0	
6.6.1	mac	0	2023-01-17	11:52:14	1	1	1	instructions	1	countdown	1000	1	75	DEV	POS	1	0.3300000000000000155						75	0	0	0	
6.6.1	mac	0	2023-01-17	11:52:14	1	1	1	experiment	2	experiment	2199	1	1	IEV	POS	1	0.3300000000000000155						1	9729	0	0	
6.6.1	mac	0	2023-01-17	11:52:14	1	1	1	experiment	2	dispFeedback	1000	1	1	IEV	POS	1	0.3300000000000000155	118	1.0821118839802192912	128.1470966651274920878	118	0.1417920256829336423	1	9729	118	0	
6.6.1	mac	0	2023-01-17	11:52:14	1	1	1	experiment	2	experiment	1628	1	13	IEV	POS	1	0.3300000000000000155						13	13392	118	0	
6.6.1	mac	0	2023-01-17	11:52:14	1	1	1	experiment	2	dispFeedback	1000	1	13	IEV	POS	1	0.3300000000000000155	119	1.0796740814325431757	128.8676132493021100345	119	0.2437085332916370806	13	13392	237	0	
6.6.1	mac	0	2023-01-17	11:52:14	1	1	1	experiment	2	experiment	570	1	30	IEV	POS	1	0.3300000000000000155						30	15983	237	0	
6.6.1	mac	0	2023-01-17	11:52:14	1	1	1	experiment	2	dispFeedback	1000	1	30	IEV	POS	1	0.3300000000000000155	106	1.0957913448006433299	116.4987280908525093537	106	0.2977138653625067688	30	15983	343	10	10
6.6.1	mac	0	2023-01-17	11:52:14	1	1	1	experiment	2	experiment	401	1	46	IEV	POS	1	0.3300000000000000155						46	18415	343	10	10
6.6.1	mac	0	2023-01-17	11:52:14	1	1	1	experiment	2	dispFeedback	1000	1	46	IEV	POS	1	0.3300000000000000155	157	1.0377923543249014671	162.9422899749970667926	157	0.3541012756419603669	46	18415	500	10	10
6.6.1	mac	0	2023-01-17	11:52:14	1	1	1	experiment	2	experiment	1631	1	13	IEV	POS	1	0.3300000000000000155						13	22078	500	10	10
6.6.1	mac	0	2023-01-17	11:52:14	1	1	1	experiment	2	dispFeedback	1000	1	13	IEV	POS	1	0.3300000000000000155	118	1.0794184763133221061	126.8968046613877049822	118	0.5876214927033571733	13	22078	618	10	10
6.6.1	mac	0	2023-01-17	11:52:14	1	1	1	experiment	3	experiment	1018	1	63	IEV	POS	1	0.3300000000000000155						63	25134	618	10	10
6.6.1	mac	0	2023-01-17	11:52:14	1	1	1	experiment	3	dispFeedback	1000	1	63	IEV	POS	1	0.3300000000000000155	27	0.9584163374200250773	25.4502480067329344138	27	0.9152109862573470922	63	25134	645	14	4
6.6.1	mac	0	2023-01-17	11:52:14	1	1	1	experiment	3	experiment	592	1	54	IEV	POS	1	0.3300000000000000155						54	27757	645	14	4
6.6.1	mac	0	2023-01-17	11:52:14	1	1	1	experiment	3	dispFeedback	1000	1	54	IEV	POS	1	0.3300000000000000155	233	0.9638582678416257599	224.7160480784565379508	233	0.5775012463744499946	54	27757	878	14	4
6.6.1	mac	0	2023-01-17	11:52:14	1	1	1	experiment	3	experiment	710	1	33	IEV	POS	1	0.3300000000000000155						33	30493	878	14	4
6.6.1	mac	0	2023-01-17	11:52:14	1	1	1	experiment	3	dispFeedback	1000	1	33	IEV	POS	1	0.3300000000000000155	125	1.0724609265321038976	134.1157994081753201954	125	0.6566203848124995135	33	30493	1003	14	4
6.6.1	mac	0	2023-01-17	11:52:14	1	1	1	experiment	3	experiment	728	1	26	IEV	POS	1	0.3300000000000000155						26	33244	1003	14	4
6.6.1	mac	0	2023-01-17	11:52:14	1	1	1	experiment	3	dispFeedback	1000	1	26	IEV	POS	1	0.3300000000000000155	107	1.0986484575726584989	117.4442666936812429412	107	0.0532202362206811649	26	33244	1110	24	10
6.6.1	mac	0	2023-01-17	11:52:14	1	1	1	experiment	3	experiment	409	1	64	IEV	POS	1	0.3300000000000000155						64	35675	1110	24	10
6.6.1	mac	0	2023-01-17	11:52:14	1	1	1	experiment	3	dispFeedback	1000	1	64	IEV	POS	1	0.3300000000000000155	290	0.9199073403841784291	266.7379745717918808623	290	0.4693173671768320343	64	35675	1400	24	10
6.6.1	mac	0	2023-01-17	11:52:14	1	1	1	endscreen	4	endscreen	5000	1	64	DEV	POS	1	0.3300000000000000155						64	35675	1400	24	
