build	computer.platform	computer.touch	date	time	subject	group	sessionid	blockcode	blocknum	trialcode	latency	randStart	startPos	scrfunc	rtvspos	randStart	mag	freq	ev	inc	rng	startPos	fogPos1	fogPos2	chooseUncertainty1	chooseUncertainty2	uncertaintyCount1	uncertaintyCount2	blockCount	ntrials	trialCount	uncertaintyStart1	uncertaintyStart2	uncertainty_block	rt_shifted	totalPoints	totalEarnings	Earnings
6.6.1	mac	0	2023-01-31	15:32:47	1	1	1	instructions	1	instructions1	755	1	75	IEV	POS	1						75	0	0	0	0	0	0	0	10	0	0	0	0		0	0	
6.6.1	mac	0	2023-01-31	15:32:47	1	1	1	instructions	1	displayGoodJob	692	1	75	IEV	POS	1						75	0	0	0	0	0	0	0	10	0	0	0	0		0	0	
6.6.1	mac	0	2023-01-31	15:32:47	1	1	1	instructions	1	feedback2_5	3000	1	75	IEV	POS	1						75	0	0	0	0	0	0	0	10	0	0	0	0		0	0	0
6.6.1	mac	0	2023-01-31	15:32:47	1	1	1	instructions	1	instructions3	786	1	75	IEV	POS	1						75	0	0	0	0	0	0	0	10	0	0	0	0		0	0	0
6.6.1	mac	0	2023-01-31	15:32:47	1	1	1	instructions	1	instructions4	2939	1	75	IEV	POS	1						75	0	0	0	0	0	0	0	10	0	0	0	0		0	0	0
6.6.1	mac	0	2023-01-31	15:32:47	1	1	1	instructions	1	sampleResponse	3000	1	75	IEV	POS	1						75	0	0	0	0	0	0	0	10	0	0	0	0	2939	0	0	0
6.6.1	mac	0	2023-01-31	15:32:47	1	1	1	instructions	1	instructions5	782	1	75	IEV	POS	1						75	0	0	0	0	0	0	0	10	0	0	0	0	2939	0	0	0
6.6.1	mac	0	2023-01-31	15:32:47	1	1	1	instructions	1	countdown	1000	1	75	IEV	POS	1						75	0	0	0	0	0	0	0	10	0	0	0	0	2939	0	0	0
6.6.1	mac	0	2023-01-31	15:32:47	1	1	1	experiment	2	experiment_noU	423	1	7	DEV	POS	1						7	30	20	0	0	0	0	1	34	0	7	24	0	2939	0	0	0
6.6.1	mac	0	2023-01-31	15:32:47	1	1	1	experiment	2	dispFeedback_noU	1000	1	7	DEV	POS	1	78	0.4650591736755529393	36.3187473029077168007	78	0.0924128446710325846	7	30	20	0	0	0	0	1	34	1	7	24	0	2023	78	6	6
6.6.1	mac	0	2023-01-31	15:32:47	1	1	1	experiment	2	experiment_noU	391	1	35	DEV	POS	1						35	30	20	0	0	0	0	1	34	1	7	24	0	2023	78	6	6
6.6.1	mac	0	2023-01-31	15:32:47	1	1	1	experiment	2	dispFeedback_noU	1000	1	35	DEV	POS	1	86	0.3275383938430609376	28.2224921738750538225	86	0.114454272579041838	35	30	20	0	0	0	0	1	34	2	7	24	0	3391	164	12	6
6.6.1	mac	0	2023-01-31	15:32:47	1	1	1	experiment	2	experiment_noU	335	1	36	DEV	POS	1						36	30	20	0	0	0	0	1	34	2	7	24	0	3391	164	12	6
6.6.1	mac	0	2023-01-31	15:32:47	1	1	1	experiment	2	dispFeedback_noU	1000	1	36	DEV	POS	1	81	0.328006169044015472	26.6179532065971322652	0	0.3529421063961791782	36	30	20	0	0	0	0	1	34	3	7	24	0	3385	164	12	0
6.6.1	mac	0	2023-01-31	15:32:47	1	1	1	experiment	2	experiment_noU	337	1	37	DEV	POS	1						37	30	20	0	0	0	0	1	34	3	7	24	0	3385	164	12	0
6.6.1	mac	0	2023-01-31	15:32:47	1	1	1	experiment	2	dispFeedback_noU	1000	1	37	DEV	POS	1	83	0.3239643898747343043	26.9788672656153138973	83	0.1774516564741385194	37	30	20	0	0	0	0	1	34	4	7	24	0	3437	247	18	6
6.6.1	mac	0	2023-01-31	15:32:47	1	1	1	experiment	2	experiment_noU	188	1	57	DEV	POS	1						57	30	20	0	0	0	0	1	34	4	7	24	0	3437	247	18	6
6.6.1	mac	0	2023-01-31	15:32:47	1	1	1	experiment	2	dispFeedback_noU	1000	1	57	DEV	POS	1	85	0.2563439360111115506	21.8271486155435319176	0	0.4316378341595730195	57	30	20	0	0	0	0	1	34	5	7	24	0	4288	247	18	0
6.6.1	mac	0	2023-01-31	15:32:47	1	1	1	experiment	2	experiment_noU	115	1	97	DEV	POS	1						97	30	20	0	0	0	0	1	34	5	7	24	0	4288	247	18	0
6.6.1	mac	0	2023-01-31	15:32:47	1	1	1	experiment	2	dispFeedback_noU	1000	1	97	DEV	POS	1	73	0.600867759387956335	43.6078148121206226051	73	0.3717110404678878877	97	30	20	0	0	0	0	1	34	6	7	24	0	1215	320	23	5
6.6.1	mac	0	2023-01-31	15:32:47	1	1	1	experiment	2	experiment_noU	169	1	76	DEV	POS	1						76	30	20	0	0	0	0	1	34	6	7	24	0	1215	320	23	5
6.6.1	mac	0	2023-01-31	15:32:47	1	1	1	experiment	2	dispFeedback_noU	1000	1	76	DEV	POS	1	67	0.8389243488373617774	56.4032843224451525543	67	0.2540469098030698758	76	30	20	0	0	0	0	1	34	7	7	24	1	219	387	28	5
6.6.1	mac	0	2023-01-31	15:32:47	1	1	1	experiment	2	experiment_U	273	1	57	DEV	POS	1						57	30	20	0	0	0	0	1	34	7	7	24	1	219	387	28	5
6.6.1	mac	0	2023-01-31	15:32:47	1	1	1	experiment	2	dispFeedback_U	1000	1	57	DEV	POS	1	80	0.248869014206560546	19.9883818477624153331	80	0.199472058727283047	57	30	20	0	0	1	0	1	34	8	7	24	1	4373	467	34	6
6.6.1	mac	0	2023-01-31	15:32:47	1	1	1	experiment	2	experiment_U	389	1	11	DEV	POS	1						11	30	20	0	0	1	0	1	34	8	7	24	1	4373	467	34	6
6.6.1	mac	0	2023-01-31	15:32:47	1	1	1	experiment	2	dispFeedback_U	1000	1	11	DEV	POS	1	83	0.4432584864482478348	36.6515624333520406708	83	0.4303947794089081902	11	30	20	1	0	2	0	1	34	9	7	24	1	2189	550	40	6
6.6.1	mac	0	2023-01-31	15:32:47	1	1	1	experiment	2	experiment_U	1876	1	78	DEV	POS	1						78	30	20	1	0	2	0	1	34	9	7	24	1	2189	550	40	6
6.6.1	mac	0	2023-01-31	15:32:47	1	1	1	experiment	2	dispFeedback_U	1000	1	78	DEV	POS	1	78	0.4646482798375659584	36.2917749250041339337	78	0.3668623484826791792	78	30	20	2	0	3	0	1	34	10	7	24	1	2026	628	46	6
6.6.1	mac	0	2023-01-31	15:32:47	1	1	1	experiment	2	experiment_U	390	1	9	DEV	POS	1						9	30	20	2	0	3	0	1	34	10	7	24	1	2026	628	46	6
6.6.1	mac	0	2023-01-31	15:32:47	1	1	1	experiment	2	dispFeedback_U	1000	1	9	DEV	POS	1	80	0.4560329905900053493	36.6367641461471080788	80	0.3493266793315593643	9	30	20	3	0	4	0	1	34	11	7	24	1	2090	708	52	6
6.6.1	mac	0	2023-01-31	15:32:47	1	1	1	experiment	2	experiment_U	439	1	53	DEV	POS	1						53	30	20	3	0	4	0	1	34	11	7	24	1	2090	708	52	6
6.6.1	mac	0	2023-01-31	15:32:47	1	1	1	experiment	2	dispFeedback_U	1000	1	53	DEV	POS	1	86	0.251884747752785465	21.7249661166783809563	0	0.2573855268436915922	53	30	20	3	0	5	0	1	34	12	7	24	1	4339	708	52	0
6.6.1	mac	0	2023-01-31	15:32:47	1	1	1	experiment	2	experiment_U	4336	1	31	DEV	POS	1						31	30	20	3	0	5	0	1	34	12	7	24	1	4339	708	52	0
6.6.1	mac	0	2023-01-31	15:32:47	1	1	1	experiment	2	dispFeedback_U	1000	1	31	DEV	POS	1	85	0.4500153560761001037	38.0269721058814056391	85	0.1448745474090973318	31	30	20	4	0	6	0	1	34	13	7	24	0	2136	793	58	6
6.6.1	mac	0	2023-01-31	15:32:47	1	1	1	experiment	2	experiment_noU	885	1	67	DEV	POS	1						67	30	20	4	0	6	0	1	34	13	7	24	0	2136	793	58	6
6.6.1	mac	0	2023-01-31	15:32:47	1	1	1	experiment	2	dispFeedback_noU	1000	1	67	DEV	POS	1	71	0.7684024266145349502	54.3836667872224452935	71	0.3323214444872740203	67	30	20	4	0	6	0	1	34	14	7	24	0	485	864	63	5
6.6.1	mac	0	2023-01-31	15:32:47	1	1	1	experiment	2	experiment_noU	336	1	88	DEV	POS	1						88	30	20	4	0	6	0	1	34	14	7	24	0	485	864	63	5
6.6.1	mac	0	2023-01-31	15:32:47	1	1	1	experiment	2	dispFeedback_noU	1000	1	88	DEV	POS	1	73	0.6489445188320335234	47.5683739263287392873	73	0.4159311631033036916	88	30	20	4	0	6	0	1	34	15	7	24	0	986	937	68	5
6.6.1	mac	0	2023-01-31	15:32:47	1	1	1	experiment	2	experiment_noU	225	1	50	DEV	POS	1						50	30	20	4	0	6	0	1	34	15	7	24	0	986	937	68	5
6.6.1	mac	0	2023-01-31	15:32:47	1	1	1	experiment	2	dispFeedback_noU	1000	1	50	DEV	POS	1	85	0.2822865348613328718	24.1354548117223330905	85	0.2210581783952792478	50	30	20	4	0	6	0	1	34	16	7	24	0	3975	1022	74	6
6.6.1	mac	0	2023-01-31	15:32:47	1	1	1	experiment	2	experiment_noU	290	1	29	DEV	POS	1						29	30	20	4	0	6	0	1	34	16	7	24	0	3975	1022	74	6
6.6.1	mac	0	2023-01-31	15:32:47	1	1	1	experiment	2	dispFeedback_noU	1000	1	29	DEV	POS	1	86	0.3602013706992144293	31.0255190803543356992	0	0.3976925540244422019	29	30	20	4	0	6	0	1	34	17	7	24	0	2990	1022	74	0
6.6.1	mac	0	2023-01-31	15:32:47	1	1	1	experiment	2	experiment_noU	380	1	18	DEV	POS	1						18	30	20	4	0	6	0	1	34	17	7	24	0	2990	1022	74	0
6.6.1	mac	0	2023-01-31	15:32:47	1	1	1	experiment	2	dispFeedback_noU	1000	1	18	DEV	POS	1	79	0.4039524904115839865	31.8324152931528310262	79	0.3023119556722957402	18	30	20	4	0	6	0	1	34	18	7	24	0	2530	1101	80	6
6.6.1	mac	0	2023-01-31	15:32:47	1	1	1	experiment	2	experiment_noU	324	1	37	DEV	POS	1						37	30	20	4	0	6	0	1	34	18	7	24	0	2530	1101	80	6
6.6.1	mac	0	2023-01-31	15:32:47	1	1	1	experiment	2	dispFeedback_noU	1000	1	37	DEV	POS	1	86	0.324972371243454794	28.0274983828025909816	0	0.4457460483409804164	37	30	20	4	0	6	0	1	34	19	7	24	0	3424	1101	80	0
6.6.1	mac	0	2023-01-31	15:32:47	1	1	1	experiment	2	experiment_noU	377	1	71	DEV	POS	1						71	30	20	4	0	6	0	1	34	19	7	24	0	3424	1101	80	0
6.6.1	mac	0	2023-01-31	15:32:47	1	1	1	experiment	2	dispFeedback_noU	1000	1	71	DEV	POS	1	65	0.8504446222766036678	55.079105427997433253	65	0.3831568852493438815	71	30	20	4	0	6	0	1	34	20	7	24	0	177	1166	85	5
6.6.1	mac	0	2023-01-31	15:32:47	1	1	1	experiment	2	experiment_noU	411	1	73	DEV	POS	1						73	30	20	4	0	6	0	1	34	20	7	24	0	177	1166	85	5
6.6.1	mac	0	2023-01-31	15:32:47	1	1	1	experiment	2	dispFeedback_noU	1000	1	73	DEV	POS	1	70	0.8140407364854713723	57.1350382525848203841	70	0.1126520821388466431	73	30	20	4	0	6	0	1	34	21	7	24	0	311	1236	90	5
6.6.1	mac	0	2023-01-31	15:32:47	1	1	1	experiment	2	experiment_noU	409	1	51	DEV	POS	1						51	30	20	4	0	6	0	1	34	21	7	24	0	311	1236	90	5
6.6.1	mac	0	2023-01-31	15:32:47	1	1	1	experiment	2	dispFeedback_noU	1000	1	51	DEV	POS	1	82	0.2631082448089799297	21.5717859576106185671	82	0.0246256098674204234	51	30	20	4	0	6	0	1	34	22	7	24	0	4209	1318	96	6
6.6.1	mac	0	2023-01-31	15:32:47	1	1	1	experiment	2	experiment_noU	339	1	65	DEV	POS	1						65	30	20	4	0	6	0	1	34	22	7	24	0	4209	1318	96	6
6.6.1	mac	0	2023-01-31	15:32:47	1	1	1	experiment	2	dispFeedback_noU	1000	1	65	DEV	POS	1	88	0.2034449366094415457	17.9429670862312420354	0	0.2690719285209364764	65	30	20	4	0	6	0	1	34	23	7	24	0	4839	1318	96	0
6.6.1	mac	0	2023-01-31	15:32:47	1	1	1	experiment	2	experiment_noU	392	1	40	DEV	POS	1						40	30	20	4	0	6	0	1	34	23	7	24	0	4839	1318	96	0
6.6.1	mac	0	2023-01-31	15:32:47	1	1	1	experiment	2	dispFeedback_noU	1000	1	40	DEV	POS	1	82	0.3081926607699528864	25.198110397970971519	0	0.4433357453540283655	40	30	20	4	0	6	0	1	34	24	7	24	2	3642	1318	96	0
6.6.1	mac	0	2023-01-31	15:32:47	1	1	1	experiment	2	experiment_U	1108	1	26	DEV	POS	1						26	30	20	4	0	6	0	1	34	24	7	24	2	3642	1318	96	0
6.6.1	mac	0	2023-01-31	15:32:47	1	1	1	experiment	2	dispFeedback_U	1000	1	26	DEV	POS	1	87	0.3069647809873593536	26.6438324138283633147	0	0.464654732021655581	26	30	20	4	0	6	1	1	34	25	7	24	2	3658	1318	96	0
6.6.1	mac	0	2023-01-31	15:32:47	1	1	1	experiment	2	experiment_U	416	1	69	DEV	POS	1						69	30	20	4	0	6	1	1	34	25	7	24	2	3658	1318	96	0
6.6.1	mac	0	2023-01-31	15:32:47	1	1	1	experiment	2	dispFeedback_U	1000	1	69	DEV	POS	1	71	0.8673456578587468435	61.6198294240746733408	71	0.1009406288156613346	69	30	20	4	1	6	2	1	34	26	7	24	2	116	1389	101	5
6.6.1	mac	0	2023-01-31	15:32:47	1	1	1	experiment	2	experiment_U	361	1	3	DEV	POS	1						3	30	20	4	1	6	2	1	34	26	7	24	2	116	1389	101	5
6.6.1	mac	0	2023-01-31	15:32:47	1	1	1	experiment	2	dispFeedback_U	1000	1	3	DEV	POS	1	80	0.5034848505593692014	40.3206933425729232567	80	0.3446707974292037013	3	30	20	4	1	6	3	1	34	27	7	24	2	1761	1469	107	6
6.6.1	mac	0	2023-01-31	15:32:47	1	1	1	experiment	2	experiment_U	289	1	54	DEV	POS	1						54	30	20	4	1	6	3	1	34	27	7	24	2	1761	1469	107	6
6.6.1	mac	0	2023-01-31	15:32:47	1	1	1	experiment	2	dispFeedback_U	1000	1	54	DEV	POS	1	90	0.2605591424692252356	23.4631375391601828539	90	0.2586932157302958002	54	30	20	4	1	6	4	1	34	28	7	24	2	4239	1559	114	7
6.6.1	mac	0	2023-01-31	15:32:47	1	1	1	experiment	2	experiment_U	358	1	16	DEV	POS	1						16	30	20	4	1	6	4	1	34	28	7	24	2	4239	1559	114	7
6.6.1	mac	0	2023-01-31	15:32:47	1	1	1	experiment	2	dispFeedback_U	1000	1	16	DEV	POS	1	80	0.4172321663434381822	33.5527039483316897872	80	0.1626033822918784288	16	30	20	4	1	6	5	1	34	29	7	24	2	2408	1639	120	6
6.6.1	mac	0	2023-01-31	15:32:47	1	1	1	experiment	2	experiment_U	384	1	85	DEV	POS	1						85	30	20	4	1	6	5	1	34	29	7	24	2	2408	1639	120	6
6.6.1	mac	0	2023-01-31	15:32:47	1	1	1	experiment	2	dispFeedback_U	1000	1	85	DEV	POS	1	77	0.6717171269289239355	51.5053117236359412345	77	0.2970732062349731861	85	30	20	4	1	6	6	1	34	30	7	24	2	884	1716	126	6
6.6.1	mac	0	2023-01-31	15:32:47	1	1	1	experiment	2	experiment_U	243	1	26	DEV	POS	1						26	30	20	4	1	6	6	1	34	30	7	24	2	884	1716	126	6
6.6.1	mac	0	2023-01-31	15:32:47	1	1	1	experiment	2	dispFeedback_U	1000	1	26	DEV	POS	1	87	0.3778664878689454998	32.717631235813684043	87	0.3647255651570683321	26	30	20	4	2	6	7	1	34	31	7	24	2	2793	1803	132	6
6.6.1	mac	0	2023-01-31	15:32:47	1	1	1	experiment	2	experiment_U	432	1	28	DEV	POS	1						28	30	20	4	2	6	7	1	34	31	7	24	2	2793	1803	132	6
6.6.1	mac	0	2023-01-31	15:32:47	1	1	1	experiment	2	dispFeedback_U	1000	1	28	DEV	POS	1	79	0.3523847541363076541	27.9723308523280884685	79	0.1394324264580925066	28	30	20	4	3	6	8	1	34	32	7	24	2	3082	1882	138	6
6.6.1	mac	0	2023-01-31	15:32:47	1	1	1	experiment	2	experiment_U	911	1	28	DEV	POS	1						28	30	20	4	3	6	8	1	34	32	7	24	2	3082	1882	138	6
6.6.1	mac	0	2023-01-31	15:32:47	1	1	1	experiment	2	dispFeedback_U	1000	1	28	DEV	POS	1	80	0.3144078472804576196	25.0182472070462367242	80	0.2257554799378280186	28	30	20	4	3	6	9	1	34	33	7	24	2	3561	1962	144	6
6.6.1	mac	0	2023-01-31	15:32:47	1	1	1	experiment	2	experiment_U	474	1	78	DEV	POS	1						78	30	20	4	3	6	9	1	34	33	7	24	2	3561	1962	144	6
6.6.1	mac	0	2023-01-31	15:32:47	1	1	1	experiment	2	dispFeedback_U	1000	1	78	DEV	POS	1	70	0.7333994332591002863	51.2529794032754466571	70	0.4954837785324742727	78	30	20	4	3	6	10	1	34	34	7	24	2	624	2032	149	5
6.6.1	mac	0	2023-01-31	15:32:47	1	1	1	experiment	3	experiment_noU	717	1	85	IEV	POS	1						85	35	15	0	0	0	0	2	35	0	8	30	2	624	2032	149	5
6.6.1	mac	0	2023-01-31	15:32:47	1	1	1	experiment	3	dispFeedback_noU	1000	1	85	IEV	POS	1	23	0.8518190017093976163	19.8671061204780698972	23	0.075369003246391425	85	35	15	0	0	0	0	2	35	1	8	30	0	1217	2055	150	1
6.6.1	mac	0	2023-01-31	15:32:47	1	1	1	experiment	3	experiment_noU	494	1	40	IEV	POS	1						40	35	15	0	0	0	0	2	35	1	8	30	0	1217	2055	150	1
6.6.1	mac	0	2023-01-31	15:32:47	1	1	1	experiment	3	dispFeedback_noU	1000	1	40	IEV	POS	1	124	0.4299344885185432674	53.1688396842273434117	0	0.4901127534662635954	40	35	15	0	0	0	0	2	35	2	8	30	0	3744	2055	150	0
6.6.1	mac	0	2023-01-31	15:32:47	1	1	1	experiment	3	experiment_noU	0	1	66	IEV	POS	1						66	35	15	0	0	0	0	2	35	2	8	30	0	3744	2055	150	0
