build	computer.platform	computer.touch	date	time	subject	group	sessionid	blockcode	blocknum	trialcode	latency	randStart	startPos	scrfunc	rtvspos	randStart	mag	freq	ev	inc	rng	startPos	fogPos1	fogPos2	chooseUncertainty1	chooseUncertainty2	uncertaintyCount1	uncertaintyCount2	blockCount	ntrials	trialCount	uncertaintyStart1	uncertaintyStart2	rt_shifted	totalPoints	totalEarnings	Earnings
6.6.1	mac	0	2023-01-31	15:29:42	1	1	1	instructions	1	instructions1	894	1	75	IEV	POS	1						75	0	0	0	0	0	0	0	10	0	0	0		0	0	
6.6.1	mac	0	2023-01-31	15:29:42	1	1	1	instructions	1	displayGoodJob	884	1	75	IEV	POS	1						75	0	0	0	0	0	0	0	10	0	0	0		0	0	
6.6.1	mac	0	2023-01-31	15:29:42	1	1	1	instructions	1	feedback2_5	3000	1	75	IEV	POS	1						75	0	0	0	0	0	0	0	10	0	0	0		0	0	0
6.6.1	mac	0	2023-01-31	15:29:42	1	1	1	instructions	1	instructions3	870	1	75	IEV	POS	1						75	0	0	0	0	0	0	0	10	0	0	0		0	0	0
6.6.1	mac	0	2023-01-31	15:29:42	1	1	1	instructions	1	instructions4	698	1	75	IEV	POS	1						75	0	0	0	0	0	0	0	10	0	0	0		0	0	0
6.6.1	mac	0	2023-01-31	15:29:42	1	1	1	instructions	1	sampleResponse	3000	1	75	IEV	POS	1						75	0	0	0	0	0	0	0	10	0	0	0	698	0	0	0
6.6.1	mac	0	2023-01-31	15:29:42	1	1	1	instructions	1	instructions4	4128	1	75	IEV	POS	1						75	0	0	0	0	0	0	0	10	0	0	0	698	0	0	0
6.6.1	mac	0	2023-01-31	15:29:42	1	1	1	instructions	1	sampleResponse	3000	1	75	IEV	POS	1						75	0	0	0	0	0	0	0	10	0	0	0	4128	0	0	0
6.6.1	mac	0	2023-01-31	15:29:42	1	1	1	instructions	1	instructions4	2976	1	75	IEV	POS	1						75	0	0	0	0	0	0	0	10	0	0	0	4128	0	0	0
6.6.1	mac	0	2023-01-31	15:29:42	1	1	1	instructions	1	sampleResponse	3000	1	75	IEV	POS	1						75	0	0	0	0	0	0	0	10	0	0	0	2976	0	0	0
6.6.1	mac	0	2023-01-31	15:29:42	1	1	1	instructions	1	instructions5	1273	1	75	IEV	POS	1						75	0	0	0	0	0	0	0	10	0	0	0	2976	0	0	0
6.6.1	mac	0	2023-01-31	15:29:42	1	1	1	instructions	1	countdown	1000	1	75	IEV	POS	1						75	0	0	0	0	0	0	0	10	0	0	0	2976	0	0	0
6.6.1	mac	0	2023-01-31	15:29:42	1	1	1	experiment	2	experiment_noU	989	1	64	IEV	POS	1						64	10	30	0	0	0	0	1	43	0	9	30	2976	0	0	0
6.6.1	mac	0	2023-01-31	15:29:42	1	1	1	experiment	2	dispFeedback_noU	1000	1	64	IEV	POS	1	18	0.8942938656983306922	16.0988659997852252559	18	0.1297111580217515936	64	10	30	0	0	0	0	1	43	1	9	30	439	18	1	1
6.6.1	mac	0	2023-01-31	15:29:42	1	1	1	experiment	2	experiment_noU	464	1	32	IEV	POS	1						32	10	30	0	0	0	0	1	43	1	9	30	439	18	1	1
6.6.1	mac	0	2023-01-31	15:29:42	1	1	1	experiment	2	dispFeedback_noU	1000	1	32	IEV	POS	1	91	0.5195677436939414306	47.0212897443836013167	91	0.417145933238124933	32	10	30	0	0	0	0	1	43	2	9	30	3314	109	8	7
6.6.1	mac	0	2023-01-31	15:29:42	1	1	1	experiment	2	experiment_noU	308	1	49	IEV	POS	1						49	10	30	0	0	0	0	1	43	2	9	30	3314	109	8	7
6.6.1	mac	0	2023-01-31	15:29:42	1	1	1	experiment	2	dispFeedback_noU	1000	1	49	IEV	POS	1	137	0.3752095091391912662	51.5662831776750252288	0	0.3776743560744622585	49	10	30	0	0	0	0	1	43	3	9	30	4008	109	8	0
6.6.1	mac	0	2023-01-31	15:29:42	1	1	1	experiment	2	experiment_noU	273	1	26	IEV	POS	1						26	10	30	0	0	0	0	1	43	3	9	30	4008	109	8	0
6.6.1	mac	0	2023-01-31	15:29:42	1	1	1	experiment	2	dispFeedback_noU	1000	1	26	IEV	POS	1	62	0.6183443238581304291	38.527997921626926825	62	0.2217874277200986288	26	10	30	0	0	0	0	1	43	4	9	30	2823	171	13	5
6.6.1	mac	0	2023-01-31	15:29:42	1	1	1	experiment	2	experiment_noU	323	1	36	IEV	POS	1						36	10	30	0	0	0	0	1	43	4	9	30	2823	171	13	5
6.6.1	mac	0	2023-01-31	15:29:42	1	1	1	experiment	2	dispFeedback_noU	1000	1	36	IEV	POS	1	96	0.5073427725745056627	48.6296463473227476015	96	0.499263354111291302	36	10	30	0	0	0	0	1	43	5	9	30	3373	267	20	7
6.6.1	mac	0	2023-01-31	15:29:42	1	1	1	experiment	2	experiment_noU	341	1	82	IEV	POS	1						82	10	30	0	0	0	0	1	43	5	9	30	3373	267	20	7
6.6.1	mac	0	2023-01-31	15:29:42	1	1	1	experiment	2	dispFeedback_noU	1000	1	82	IEV	POS	1	17	0.8855520920363295634	15.0311804709236831457	17	0.2624229886015930768	82	10	30	0	0	0	0	1	43	6	9	30	691	284	21	1
6.6.1	mac	0	2023-01-31	15:29:42	1	1	1	experiment	2	experiment_noU	280	1	19	IEV	POS	1						19	10	30	0	0	0	0	1	43	6	9	30	691	284	21	1
6.6.1	mac	0	2023-01-31	15:29:42	1	1	1	experiment	2	dispFeedback_noU	1000	1	19	IEV	POS	1	53	0.6821320853163777009	36.1228021817538973437	53	0.1960881143333595422	19	10	30	0	0	0	0	1	43	7	9	30	2480	337	25	4
6.6.1	mac	0	2023-01-31	15:29:42	1	1	1	experiment	2	experiment_noU	309	1	27	IEV	POS	1						27	10	30	0	0	0	0	1	43	7	9	30	2480	337	25	4
6.6.1	mac	0	2023-01-31	15:29:42	1	1	1	experiment	2	dispFeedback_noU	1000	1	27	IEV	POS	1	74	0.6015587221205256352	44.4223677300847796801	74	0.2620965109118484904	27	10	30	0	0	0	0	1	43	8	9	30	2909	411	30	5
6.6.1	mac	0	2023-01-31	15:29:42	1	1	1	experiment	2	experiment_noU	407	1	86	IEV	POS	1						86	10	30	0	0	0	0	1	43	8	9	30	2909	411	30	5
6.6.1	mac	0	2023-01-31	15:29:42	1	1	1	experiment	2	dispFeedback_noU	1000	1	86	IEV	POS	1	24	0.8712363770404825125	20.7542786812298238885	24	0.4505874663476337472	86	10	30	0	0	0	0	1	43	9	9	30	957	435	31	1
6.6.1	mac	0	2023-01-31	15:29:42	1	1	1	experiment	2	experiment_U	432	1	54	IEV	POS	1						54	10	30	0	0	0	0	1	43	9	9	30	957	435	31	1
6.6.1	mac	0	2023-01-31	15:29:42	1	1	1	experiment	2	dispFeedback_U	1000	1	54	IEV	POS	1	182	0.299935217211945826	54.5097437989091773147	182	0.2928994778294347623	54	10	30	0	0	1	0	1	43	10	9	30	4382	617	41	10
6.6.1	mac	0	2023-01-31	15:29:42	1	1	1	experiment	2	experiment_U	421	1	18	IEV	POS	1						18	10	30	0	0	1	0	1	43	10	9	30	4382	617	41	10
6.6.1	mac	0	2023-01-31	15:29:42	1	1	1	experiment	2	dispFeedback_U	1000	1	18	IEV	POS	1	55	0.6657603593130640984	36.6053194051124179964	55	0.3250820642162771112	18	10	30	0	0	2	0	1	43	11	9	30	2571	672	45	4
6.6.1	mac	0	2023-01-31	15:29:42	1	1	1	experiment	2	experiment_U	406	1	96	IEV	POS	1						96	10	30	0	0	2	0	1	43	11	9	30	2571	672	45	4
6.6.1	mac	0	2023-01-31	15:29:42	1	1	1	experiment	2	dispFeedback_U	1000	1	96	IEV	POS	1	28	0.8290955795040418908	23.3608597592132163356	28	0.3233745903296802449	96	10	30	0	0	3	0	1	43	12	9	30	1456	700	47	2
6.6.1	mac	0	2023-01-31	15:29:42	1	1	1	experiment	2	experiment_U	407	1	84	IEV	POS	1						84	10	30	0	0	3	0	1	43	12	9	30	1456	700	47	2
6.6.1	mac	0	2023-01-31	15:29:42	1	1	1	experiment	2	dispFeedback_U	1000	1	84	IEV	POS	1	24	0.8772604053483504805	20.7585639378615063322	24	0.3311960129838427691	84	10	30	0	0	4	0	1	43	13	9	30	857	724	48	1
6.6.1	mac	0	2023-01-31	15:29:42	1	1	1	experiment	2	experiment_U	343	1	50	IEV	POS	1						50	10	30	0	0	4	0	1	43	13	9	30	857	724	48	1
6.6.1	mac	0	2023-01-31	15:29:42	1	1	1	experiment	2	dispFeedback_U	1000	1	50	IEV	POS	1	147	0.3578126454593382744	52.5836562029757317305	147	0.1028881080222521227	50	10	30	1	0	5	0	1	43	14	9	30	4093	871	58	10
6.6.1	mac	0	2023-01-31	15:29:42	1	1	1	experiment	2	experiment_U	373	1	95	IEV	POS	1						95	10	30	1	0	5	0	1	43	14	9	30	4093	871	58	10
6.6.1	mac	0	2023-01-31	15:29:42	1	1	1	experiment	2	dispFeedback_U	1000	1	95	IEV	POS	1	27	0.8375177217784558481	22.4182132778079292734	27	0.0280433276267823134	95	10	30	1	0	6	0	1	43	15	9	30	1373	898	60	2
6.6.1	mac	0	2023-01-31	15:29:42	1	1	1	experiment	2	experiment_U	340	1	76	IEV	POS	1						76	10	30	1	0	6	0	1	43	15	9	30	1373	898	60	2
6.6.1	mac	0	2023-01-31	15:29:42	1	1	1	experiment	2	dispFeedback_U	1000	1	76	IEV	POS	1	14	0.8954914805000306899	12.276045902708927926	14	0.3118431483888633449	76	10	30	1	0	7	0	1	43	16	9	30	390	912	61	1
6.6.1	mac	0	2023-01-31	15:29:42	1	1	1	experiment	2	experiment_U	810	1	38	IEV	POS	1						38	10	30	1	0	7	0	1	43	16	9	30	390	912	61	1
6.6.1	mac	0	2023-01-31	15:29:42	1	1	1	experiment	2	dispFeedback_U	1000	1	38	IEV	POS	1	140	0.3850913177359063244	53.8742037613619118019	140	0.0655949519867065761	38	10	30	2	0	8	0	1	43	17	9	30	3960	1052	71	10
6.6.1	mac	0	2023-01-31	15:29:42	1	1	1	experiment	2	experiment_U	1217	1	44	IEV	POS	1						44	10	30	2	0	8	0	1	43	17	9	30	3960	1052	71	10
6.6.1	mac	0	2023-01-31	15:29:42	1	1	1	experiment	2	dispFeedback_U	1000	1	44	IEV	POS	1	226	0.2453994729565480704	55.540612323354309865	0	0.3612742549416781968	44	10	30	2	0	9	0	1	43	18	9	30	4667	1052	71	0
6.6.1	mac	0	2023-01-31	15:29:42	1	1	1	experiment	2	experiment_U	459	1	94	IEV	POS	1						94	10	30	2	0	9	0	1	43	18	9	30	4667	1052	71	0
6.6.1	mac	0	2023-01-31	15:29:42	1	1	1	experiment	2	dispFeedback_U	1000	1	94	IEV	POS	1	29	0.833933920167927889	24.491905622892332417	29	0.397016852371631368	94	10	30	2	0	10	0	1	43	19	9	30	1409	1081	73	2
6.6.1	mac	0	2023-01-31	15:29:42	1	1	1	experiment	2	experiment_U	573	1	58	IEV	POS	1						58	10	30	2	0	10	0	1	43	19	9	30	1409	1081	73	2
6.6.1	mac	0	2023-01-31	15:29:42	1	1	1	experiment	2	dispFeedback_U	1000	1	58	IEV	POS	1	246	0.2350387208606827538	57.9341625053735569395	0	0.46197273278654849	58	10	30	2	0	11	0	1	43	20	9	30	4723	1081	73	0
6.6.1	mac	0	2023-01-31	15:29:42	1	1	1	experiment	2	experiment_U	1865	1	31	IEV	POS	1						31	10	30	2	0	11	0	1	43	20	9	30	4723	1081	73	0
6.6.1	mac	0	2023-01-31	15:29:42	1	1	1	experiment	2	dispFeedback_U	1000	1	31	IEV	POS	1	229	0.2457717921717122167	56.2677450099847220599	229	0.1281079202024517361	31	10	30	2	0	12	0	1	43	21	9	30	4665	1310	83	10
6.6.1	mac	0	2023-01-31	15:29:42	1	1	1	experiment	2	experiment_U	396	1	100	IEV	POS	1						100	10	30	2	0	12	0	1	43	21	9	30	4665	1310	83	10
