build	computer.platform	computer.touch	date	time	subject	group	sessionid	blockcode	blocknum	trialcode	latency	randStart	startPos	scrfunc	rtvspos	randStart	circleproportion	mag	freq	ev	inc	rng	startPos	n_revolutions	totalPoints	totalEarnings	Earnings
6.6.1	mac	0	2023-01-18	16:07:48	1	1	1	experiment	1	experiment_noU	881	1	24	IEV	POS	1	0.3300000000000000155						24	1974	0	0	
6.6.1	mac	0	2023-01-18	16:07:48	1	1	1	experiment	1	dispFeedback_noU	1000	1	24	IEV	POS	1	0.3300000000000000155	106	1.0950204399972260916	116.026958727317619946	106	0.3247474204573657652	24	1974	106	10	10
6.6.1	mac	0	2023-01-18	16:07:48	1	1	1	experiment	1	experiment_noU	892	1	2	IEV	POS	1	0.3300000000000000155						2	4918	106	10	10
6.6.1	mac	0	2023-01-18	16:07:48	1	1	1	experiment	1	dispFeedback_noU	1000	1	2	IEV	POS	1	0.3300000000000000155	65	1.1220501467221957181	73.0884220960245301058	65	0.9744951261613739035	2	4918	171	17	7
6.6.1	mac	0	2023-01-18	16:07:48	1	1	1	experiment	1	experiment_U	1975	1	8	IEV	POS	1	0.3300000000000000155						8	8933	171	17	7
6.6.1	mac	0	2023-01-18	16:07:48	1	1	1	experiment	1	dispFeedback_U	1000	1	8	IEV	POS	1	0.3300000000000000155	124	1.0710913422600070177	132.9589131567593369709	124	0.3571688482438141743	8	8933	295	27	10
6.6.1	mac	0	2023-01-18	16:07:48	1	1	1	experiment	1	experiment_U	2182	1	78	IEV	POS	1	0.3300000000000000155						78	13156	295	27	10
6.6.1	mac	0	2023-01-18	16:07:48	1	1	1	experiment	1	dispFeedback_U	1000	1	78	IEV	POS	1	0.3300000000000000155	70	1.1237476447847318806	78.7000385408599782977	70	0.748679678362952461	78	13156	365	34	7
6.6.1	mac	0	2023-01-18	16:07:48	1	1	1	experiment	1	experiment_U	1373	1	19	IEV	POS	1	0.3300000000000000155						19	16563	365	34	7
6.6.1	mac	0	2023-01-18	16:07:48	1	1	1	experiment	1	dispFeedback_U	1000	1	19	IEV	POS	1	0.3300000000000000155	128	1.0757734861551331296	138.1739873484361851297	128	0.5263112353920730291	19	16563	493	44	10
6.6.1	mac	0	2023-01-18	16:07:48	1	1	1	experiment	1	experiment_U	612	1	60	IEV	POS	1	0.3300000000000000155						60	19203	493	44	10
6.6.1	mac	0	2023-01-18	16:07:48	1	1	1	experiment	1	dispFeedback_U	1000	1	60	IEV	POS	1	0.3300000000000000155	296	0.9194848535484656527	271.902454860259808811	296	0.0504918918131133307	60	19203	789	54	10
6.6.1	mac	0	2023-01-18	16:07:48	1	1	1	experiment	1	experiment_U	395	1	44	IEV	POS	1	0.3300000000000000155						44	21618	789	54	10
6.6.1	mac	0	2023-01-18	16:07:48	1	1	1	experiment	1	dispFeedback_U	1000	1	44	IEV	POS	1	0.3300000000000000155	148	1.0493246568223031367	155.8112381986979642079	148	0.7456661541354064893	44	21618	937	64	10
6.6.1	mac	0	2023-01-18	16:07:48	1	1	1	experiment	1	experiment_U	3146	1	93	IEV	POS	1	0.3300000000000000155						93	26786	937	64	10
6.6.1	mac	0	2023-01-18	16:07:48	1	1	1	experiment	1	dispFeedback_U	1000	1	93	IEV	POS	1	0.3300000000000000155	161	1.0269360631477322254	165.6477253022670765858	161	0.3009576495506236515	93	26786	1098	74	10
6.6.1	mac	0	2023-01-18	16:07:48	1	1	1	experiment	2	experiment_noU	570	1	76	DEV	POS	1	0.3300000000000000155						76	29393	1098	74	10
6.6.1	mac	0	2023-01-18	16:07:48	1	1	1	experiment	2	dispFeedback_noU	1000	1	76	DEV	POS	1	0.3300000000000000155	63	0.7343876691941488843	45.9071631719790502757	0	0.736961703220606279	76	29393	1098	74	0
6.6.1	mac	0	2023-01-18	16:07:48	1	1	1	experiment	2	experiment_noU	450	1	14	DEV	POS	1	0.3300000000000000155						14	31856	1098	74	0
6.6.1	mac	0	2023-01-18	16:07:48	1	1	1	experiment	2	dispFeedback_noU	1000	1	14	DEV	POS	1	0.3300000000000000155	70	0.4181319913974907987	29.0646906285563630945	0	0.6152060440776884187	14	31856	1098	74	0
6.6.1	mac	0	2023-01-18	16:07:48	1	1	1	experiment	2	experiment_U	592	1	3	DEV	POS	1	0.3300000000000000155						3	34465	1098	74	0
