build	computer.platform	computer.touch	date	time	subject	group	sessionid	blockcode	blocknum	trialcode	latency	randStart	startPos	scrfunc	rtvspos	randStart	circleproportion	mag	freq	ev	inc	rng	startPos	n_revolutions	totalPoints	totalEarnings	Earnings
6.6.1	mac	0	2023-01-16	14:49:47	1	1	1	instructions	1	instructions1	14559	1	75	IEV	POS	1	0.3300000000000000155						75	0	0	0	
6.6.1	mac	0	2023-01-16	14:49:47	1	1	1	instructions	1	displayGoodJob	2102	1	75	IEV	POS	1	0.3300000000000000155						75	0	0	0	
6.6.1	mac	0	2023-01-16	14:49:47	1	1	1	instructions	1	instructions3	1835	1	75	IEV	POS	1	0.3300000000000000155						75	0	0	0	
6.6.1	mac	0	2023-01-16	14:49:47	1	1	1	instructions	1	countdown	1000	1	75	IEV	POS	1	0.3300000000000000155						75	0	0	0	
6.6.1	mac	0	2023-01-16	14:49:47	1	1	1	experiment	2	experiment	1775	1	91	IEV	POS	1	0.3300000000000000155						91	27310	0	0	
6.6.1	mac	0	2023-01-16	14:49:47	1	1	1	experiment	2	dispFeedback	1000	1	91	IEV	POS	1	0.3300000000000000155	73	1.124750221866443356	81.6001779473839832235	73	0.0210505863700645481	91	27310	73	7	7
6.6.1	mac	0	2023-01-16	14:49:47	1	1	1	experiment	2	experiment	1894	1	26	IEV	POS	1	0.3300000000000000155						26	31245	73	7	7
6.6.1	mac	0	2023-01-16	14:49:47	1	1	1	experiment	2	dispFeedback	1000	1	26	IEV	POS	1	0.3300000000000000155	218	0.9770135718756535192	212.5825447016711962078	218	0.5975814623752565558	26	31245	291	7	7
6.6.1	mac	0	2023-01-16	14:49:47	1	1	1	experiment	2	experiment	607	1	55	IEV	POS	1	0.3300000000000000155						55	33875	291	7	7
6.6.1	mac	0	2023-01-16	14:49:47	1	1	1	experiment	2	dispFeedback	1000	1	55	IEV	POS	1	0.3300000000000000155	244	0.9549961749632898123	233.4535306809344774592	244	0.5700389506691225794	55	33875	535	7	7
6.6.1	mac	0	2023-01-16	14:49:47	1	1	1	experiment	2	experiment	1829	1	30	IEV	POS	1	0.3300000000000000155						30	37745	535	7	7
6.6.1	mac	0	2023-01-16	14:49:47	1	1	1	experiment	2	dispFeedback	1000	1	30	IEV	POS	1	0.3300000000000000155	239	0.9588258049353373114	229.616721958911909951	239	0.3863229528968974424	30	37745	774	7	7
6.6.1	mac	0	2023-01-16	14:49:47	1	1	1	experiment	2	experiment	3624	1	66	IEV	POS	1	0.3300000000000000155						66	43407	774	7	7
6.6.1	mac	0	2023-01-16	14:49:47	1	1	1	experiment	2	dispFeedback	1000	1	66	IEV	POS	1	0.3300000000000000155	102	1.1051238732326573722	112.9394276818407405472	102	0.1586853976265260591	66	43407	876	16	9
6.6.1	mac	0	2023-01-16	14:49:47	1	1	1	experiment	3	experiment	610	1	39	IEV	POS	1	0.3300000000000000155						39	46059	876	16	9
6.6.1	mac	0	2023-01-16	14:49:47	1	1	1	experiment	3	dispFeedback	1000	1	39	IEV	POS	1	0.3300000000000000155	138	1.0529895102125443884	144.8085128278225681697	138	0.3785951452745578982	39	46059	1014	16	9
6.6.1	mac	0	2023-01-16	14:49:47	1	1	1	experiment	3	experiment	3248	1	5	IEV	POS	1	0.3300000000000000155						5	51330	1014	16	9
6.6.1	mac	0	2023-01-16	14:49:47	1	1	1	experiment	3	dispFeedback	1000	1	5	IEV	POS	1	0.3300000000000000155	267	0.9354769890686600586	250.0081741587019905637	267	0.7866917254372247648	5	51330	1281	16	9
6.6.1	mac	0	2023-01-16	14:49:47	1	1	1	experiment	3	experiment	3638	1	93	IEV	POS	1	0.3300000000000000155						93	56987	1281	16	9
6.6.1	mac	0	2023-01-16	14:49:47	1	1	1	experiment	3	dispFeedback	1000	1	93	IEV	POS	1	0.3300000000000000155	229	0.9644002990008917475	221.304124549419128698	229	0.0099040505033694323	93	56987	1510	16	9
6.6.1	mac	0	2023-01-16	14:49:47	1	1	1	experiment	3	experiment	2314	1	94	IEV	POS	1	0.3300000000000000155						94	61346	1510	16	9
6.6.1	mac	0	2023-01-16	14:49:47	1	1	1	experiment	3	dispFeedback	1000	1	94	IEV	POS	1	0.3300000000000000155	100	1.0995701838484919222	110.0762475136276918875	100	0.4840839983625532805	94	61346	1610	25	9
6.6.1	mac	0	2023-01-16	14:49:47	1	1	1	experiment	3	experiment	1540	1	38	IEV	POS	1	0.3300000000000000155						38	64906	1610	25	9
6.6.1	mac	0	2023-01-16	14:49:47	1	1	1	experiment	3	dispFeedback	1000	1	38	IEV	POS	1	0.3300000000000000155	252	0.9435486303114435369	237.9896925461838748106	252	0.3702096315962750683	38	64906	1862	25	9
6.6.1	mac	0	2023-01-16	14:49:47	1	1	1	endscreen	4	endscreen	3000	1	38	IEV	POS	1	0.3300000000000000155						38	64906	1862	25	
