build	computer.platform	computer.touch	date	time	subject	group	sessionid	blockcode	blocknum	trialcode	preClockFreezeBlock	list.preClockFreeze.currentvalue	latency	list.ISI.currentvalue	list.ITI.currentvalue	trial.instructions5_1.response	trial.instructions5_2.response	startPos	scrfunc	rtvspos	randStart	mag	freq	ev	inc	inc_rg	rng	fogPos1	fogPos3	fogPos5	fogPos_out	list.wind_size.currentvalue	windPos2	windPos4	windPos6	windPos_out	chooseFog1	chooseWind2	chooseFog3	chooseWind4	chooseFog5	chooseWind6	choose_unc_att1	choose_unc_att_out1	choose_unc_att2	choose_unc_att_out2	choose_unc_att3	choose_unc_att_out3	choose_unc_att4	choose_unc_att_out4	unc_att_count1	unc_att_count_out1	unc_att_count2	unc_att_count_out2	unc_att_count3	unc_att_count_out3	unc_att_count4	unc_att_count_out4	unc_att_count5	unc_att_count_out5	unc_att_count6	unc_att_count_out6	chooseAttentionalControl	chooseUncertainty	blockCount	ntrials	trialCount	meta_trialCount	attentional_control	local_uncertainty	unc_att_start1	unc_att_start2	unc_att_start3	unc_att_start4	unc_att_start5	unc_att_start6	unc_att_block	list.rt_0.currentindex	rt_shifted	pos_shifted	totalPoints	totalEarnings	Earnings
6.6.1	mac	0	2023-09-15	19:43:27	1	1	1	experiment	1	experiment_noU	2	750	709	220	120			21	dynamic	POS	1							10	40	20			40	30	20		0	0	0	0	0	0	0	0	0	0	0	0	0	0	0	0	0	0	0	0	0	0	0	0	0	0	0	0	1		1	0	cloud	wind	5	17	27	35	0	0	0	1			0	0	
6.6.1	mac	0	2023-09-15	19:43:27	1	1	1	experiment	1	dispFeedback_noU	2	750	1000	220	120			21	dynamic	POS	1	6	0.6999999999999999556	4.1999999999999992895	6	10	0.1565781287282188849	10	40	20			40	30	20		0	0	0	0	0	0	0	0	0	0	0	0	0	0	0	0	0	0	0	0	0	0	0	0	0	0	0	0	1		1	0	cloud	wind	5	17	27	35	0	0	0	1	3009	216.6479999999999961346	6	0	10
6.6.1	mac	0	2023-09-15	19:43:27	1	1	1	experiment	1	experiment_noU	2	750	609	330	150			51	dynamic	POS	1					10		10	40	20			40	30	20		0	0	0	0	0	0	0	0	0	0	0	0	0	0	0	0	0	0	0	0	0	0	0	0	0	0	0	0	1		2	0	cloud	wind	5	17	27	35	0	0	0	2	3009	216.6479999999999961346	6	0	10
6.6.1	mac	0	2023-09-15	19:43:27	1	1	1	experiment	1	dispFeedback_noU	2	750	1000	330	150			51	dynamic	POS	1	62	0.6999999999999999556	43.3999999999999985789	62	65	0.1242646633471047174	10	40	20			40	30	20		0	0	0	0	0	0	0	0	0	0	0	0	0	0	0	0	0	0	0	0	0	0	0	0	0	0	0	0	1		2	0	cloud	wind	5	17	27	35	0	0	0	2	4409	317.4479999999999790816	68	0	65
6.6.1	mac	0	2023-09-15	19:43:27	1	1	1	experiment	1	experiment_noU	2	750	541	510	400			84	dynamic	POS	1					65		10	40	20			40	30	20		0	0	0	0	0	0	0	0	0	0	0	0	0	0	0	0	0	0	0	0	0	0	0	0	0	0	0	0	1		3	0	cloud	wind	5	17	27	35	0	0	0	3	4409	317.4479999999999790816	68	0	65
6.6.1	mac	0	2023-09-15	19:43:27	1	1	1	experiment	1	dispFeedback_noU	2	750	1000	510	400			84	dynamic	POS	1	38	0.6999999999999999556	26.5999999999999978684	38	41	0.4130920340337539409	10	40	20			40	30	20		0	0	0	0	0	0	0	0	0	0	0	0	0	0	0	0	0	0	0	0	0	0	0	0	0	0	0	0	1		3	0	cloud	wind	5	17	27	35	0	0	0	3	991	71.3520000000000038654	106	0	41
6.6.1	mac	0	2023-09-15	19:43:27	1	1	1	experiment	1	experiment_U	2	750	684	580	210			37	dynamic	POS	1					41		10	40	20	270	30pct	40	30	20		0	0	0	0	0	0	0	0	0	0	0	0	0	0	0	1	0	0	0	0	0	0	0	0	0	0	0	0	1		5	1	cloud	wind	5	17	27	35	0	0	1	4	991	71.3520000000000038654	106	0	41
6.6.1	mac	0	2023-09-15	19:43:27	1	1	1	experiment	1	dispFeedback_U	2	750	1000	580	210			37	dynamic	POS	1	6	0.6999999999999999556	4.1999999999999992895	1	10	0.838802395118121602	10	40	20	270	30pct	40	30	20		1	0	0	0	0	0	1	1	0	0	0	0	0	0	1	1	0	0	0	0	0	0	0	0	0	0	1	0	1		5	1	cloud	wind	5	17	27	35	0	0	1	4	3784	272.4479999999999790816	107	0	10
6.6.1	mac	0	2023-09-15	19:43:27	1	1	1	experiment	1	experiment_U	2	750	1256	230	280			26	dynamic	POS	1					10		10	40	20	270	30pct	40	30	20		1	0	0	0	0	0	1	0	0	0	0	0	0	0	1	2	0	0	0	0	0	0	0	0	0	0	0	0	1		7	2	cloud	wind	5	17	27	35	0	0	1	5	3784	272.4479999999999790816	107	0	10
6.6.1	mac	0	2023-09-15	19:43:27	1	1	1	experiment	1	dispFeedback_U	2	750	1000	230	280			26	dynamic	POS	1	10	0.6999999999999999556	7	10	10	0.2604238081864136967	10	40	20	270	30pct	40	30	20		1	0	0	0	0	0	2	1	0	0	0	0	0	0	2	2	0	0	0	0	0	0	0	0	0	0	1	0	1		7	2	cloud	wind	5	17	27	35	0	0	1	5	3806	274.0319999999999822649	117	0	10
6.6.1	mac	0	2023-09-15	19:43:27	1	1	1	experiment	1	experiment_noU	2	750	851	340	450			68	dynamic	POS	1					10		10	40	20		30pct	40	30	20		0	0	0	0	0	0	2	0	0	0	0	0	0	0	2	0	0	0	0	0	0	0	0	0	0	0	0	0	1		8	2	cloud	wind	5	12	27	35	0	0	0	6	3806	274.0319999999999822649	117	0	10
6.6.1	mac	0	2023-09-15	19:43:27	1	1	1	experiment	1	dispFeedback_noU	2	750	1000	340	450			68	dynamic	POS	1	82	0.6999999999999999556	57.3999999999999985789	82	71	0.0753885014158181127	10	40	20		30pct	40	30	20		0	0	0	0	0	0	2	0	0	0	0	0	0	0	2	0	0	0	0	0	0	0	0	0	0	0	0	0	1		8	2	cloud	wind	5	12	27	35	0	0	0	6	501	36.0720000000000027285	199	0	71
6.6.1	mac	0	2023-09-15	19:43:27	1	1	1	experiment	1	experiment_noU	2	750	379	540	200			16	dynamic	POS	1					71		10	40	20		30pct	40	30	20		0	0	0	0	0	0	2	0	0	0	0	0	0	0	2	0	0	0	0	0	0	0	0	0	0	0	0	0	1		9	2	cloud	wind	5	12	27	35	0	0	0	7	501	36.0720000000000027285	199	0	71
6.6.1	mac	0	2023-09-15	19:43:27	1	1	1	experiment	1	dispFeedback_noU	2	750	1000	540	200			16	dynamic	POS	1	32	0.6999999999999999556	22.3999999999999985789	1	10	0.9001093031605960082	10	40	20		30pct	40	30	20		0	0	0	0	0	0	2	0	0	0	0	0	0	0	2	0	0	0	0	0	0	0	0	0	0	0	0	0	1		9	2	cloud	wind	5	12	27	35	0	0	0	7	2429	174.8880000000000052296	200	0	10
6.6.1	mac	0	2023-09-15	19:43:27	1	1	1	experiment	1	experiment_noU	2	750	304	400	490			46	dynamic	POS	1					10		10	40	20		30pct	40	30	20		0	0	0	0	0	0	2	0	0	0	0	0	0	0	2	0	0	0	0	0	0	0	0	0	0	0	0	0	1		10	2	cloud	wind	5	12	27	35	0	0	0	8	2429	174.8880000000000052296	200	0	10
6.6.1	mac	0	2023-09-15	19:43:27	1	1	1	experiment	1	dispFeedback_noU	2	750	1000	400	490			46	dynamic	POS	1	3	0.6999999999999999556	2.0999999999999996447	3	10	0.6492928787249356848	10	40	20		30pct	40	30	20		0	0	0	0	0	0	2	0	0	0	0	0	0	0	2	0	0	0	0	0	0	0	0	0	0	0	0	0	1		10	2	cloud	wind	5	12	27	35	0	0	0	8	3854	277.4879999999999995453	203	0	10
6.6.1	mac	0	2023-09-15	19:43:27	1	1	1	experiment	1	experiment_U	2	750	2549	490	250			48	dynamic	POS	1					10		10	40	20		30pct	40	30	20	90	0	0	0	0	0	0	2	0	0	0	0	0	0	0	2	0	0	1	0	0	0	0	0	0	0	0	0	0	1		12	3	cloud	wind	5	12	27	35	0	0	2	9	3854	277.4879999999999995453	203	0	10
6.6.1	mac	0	2023-09-15	19:43:27	1	1	1	experiment	1	dispFeedback_U	2	750	1000	490	250			48	dynamic	POS	1	34	0.6999999999999999556	23.7999999999999971578	34	40	0.4169781495390874615	10	40	20		30pct	0	30	20	90	0	0	0	0	0	0	2	0	0	0	0	0	0	0	2	0	1	1	0	0	0	0	0	0	0	0	0	0	1		12	3	cloud	wind	5	12	27	35	0	0	2	9	1199	86.3280000000000029559	237	0	40
6.6.1	mac	0	2023-09-15	19:43:27	1	1	1	experiment	1	experiment_U	2	750	2448	360	480			50	dynamic	POS	1					40		10	40	20		30pct	0	30	20	90	0	0	0	0	0	0	2	0	0	0	0	0	0	0	2	0	1	2	0	0	0	0	0	0	0	0	0	0	1		14	4	cloud	wind	5	12	27	35	0	0	2	10	1199	86.3280000000000029559	237	0	40
6.6.1	mac	0	2023-09-15	19:43:27	1	1	1	experiment	1	dispFeedback_U	2	750	1000	360	480			50	dynamic	POS	1	33	0.6999999999999999556	23.0999999999999978684	33	36	0.2565775409472588198	10	40	20		30pct	0	30	20	90	0	0	0	0	0	0	2	0	0	0	0	0	0	0	2	0	2	2	0	0	0	0	0	0	0	0	0	0	1		14	4	cloud	wind	5	12	27	35	0	0	2	10	1198	86.2560000000000002274	270	0	36
6.6.1	mac	0	2023-09-15	19:43:27	1	1	1	experiment	1	experiment_U	2	750	2915	380	300			41	dynamic	POS	1					36		10	40	20		30pct	0	30	20	90	0	0	0	0	0	0	2	0	0	0	0	0	0	0	2	0	2	3	0	0	0	0	0	0	0	0	0	0	1		16	5	cloud	wind	5	12	27	35	0	0	2	11	1198	86.2560000000000002274	270	0	36
6.6.1	mac	0	2023-09-15	19:43:27	1	1	1	experiment	1	dispFeedback_U	2	750	1000	380	300			41	dynamic	POS	1	45	0.6999999999999999556	31.4999999999999964473	45	36	0.1432477298991865766	10	40	20		30pct	0	30	20	90	0	0	0	0	0	0	2	0	0	0	0	0	0	0	2	0	3	3	0	0	0	0	0	0	0	0	0	0	1		16	5	cloud	wind	5	12	27	35	0	0	2	11	1215	87.480000000000003979	315	0	36
6.6.1	mac	0	2023-09-15	19:43:27	1	1	1	experiment	1	experiment_U	2	750	2037	200	230			100	dynamic	POS	1					36		10	40	20		30pct	0	30	20	90	0	0	0	0	0	0	2	0	0	0	0	0	0	0	2	0	3	4	0	0	0	0	0	0	0	0	0	0	1		18	6	cloud	wind	5	12	27	35	0	0	2	12	1215	87.480000000000003979	315	0	36
6.6.1	mac	0	2023-09-15	19:43:27	1	1	1	experiment	1	dispFeedback_U	2	750	1000	200	230			100	dynamic	POS	1	13	0.6999999999999999556	9.0999999999999996447	1	10	0.7401496578799908743	10	40	20		30pct	0	30	20	90	0	0	0	0	0	0	2	0	0	0	0	0	0	0	2	0	4	4	0	0	0	0	0	0	0	0	0	0	1		18	6	cloud	wind	5	12	27	35	0	0	2	12	3287	236.6639999999999872671	316	0	10
6.6.1	mac	0	2023-09-15	19:43:27	1	1	1	experiment	1	experiment_noU	2	750	843	550	350			67	dynamic	POS	1					10		10	40	20		30pct	0	30	20		0	0	0	0	0	0	2	0	0	0	0	0	0	0	2	0	4	0	0	0	0	0	0	0	0	0	0	0	1		19	6	cloud	wind	5	12	27	35	0	0	0	13	3287	236.6639999999999872671	316	0	10
6.6.1	mac	0	2023-09-15	19:43:27	1	1	1	experiment	1	dispFeedback_noU	2	750	1000	550	350			67	dynamic	POS	1	152	0.6999999999999999556	106.3999999999999914735	152	152	0.2604972487922053159	10	40	20		30pct	0	30	20		0	0	0	0	0	0	2	0	0	0	0	0	0	0	2	0	4	0	0	0	0	0	0	0	0	0	0	0	1		19	6	cloud	wind	5	12	27	35	0	0	0	13	443	31.8960000000000007958	468	0	152
6.6.1	mac	0	2023-09-15	19:43:27	1	1	1	experiment	1	experiment_noU	2	750	449	240	180			0	dynamic	POS	1					152		10	40	20		30pct	0	30	20		0	0	0	0	0	0	2	0	0	0	0	0	0	0	2	0	4	0	0	0	0	0	0	0	0	0	0	0	1		20	6	cloud	wind	5	12	27	35	0	0	0	14	443	31.8960000000000007958	468	0	152
6.6.1	mac	0	2023-09-15	19:43:27	1	1	1	experiment	1	dispFeedback_noU	2	750	1000	240	180			0	dynamic	POS	1	25	0.6999999999999999556	17.5	1	10	0.8769063288059333328	10	40	20		30pct	0	30	20		0	0	0	0	0	0	2	0	0	0	0	0	0	0	2	0	4	0	0	0	0	0	0	0	0	0	0	0	1		20	6	cloud	wind	5	12	27	35	0	0	0	14	1699	122.3280000000000029559	469	0	10
6.6.1	mac	0	2023-09-15	19:43:27	1	1	1	experiment	1	experiment_noU	2	750	358	290	160			49	dynamic	POS	1					10		10	40	20		30pct	0	30	20		0	0	0	0	0	0	2	0	0	0	0	0	0	0	2	0	4	0	0	0	0	0	0	0	0	0	0	0	1		21	6	cloud	wind	5	12	27	35	0	0	0	15	1699	122.3280000000000029559	469	0	10
6.6.1	mac	0	2023-09-15	19:43:27	1	1	1	experiment	1	dispFeedback_noU	2	750	1000	290	160			49	dynamic	POS	1	-5	0.6999999999999999556	-3.5	-5		0.3350592088734403173	10	40	20		30pct	0	30	20		0	0	0	0	0	0	2	0	0	0	0	0	0	0	2	0	4	0	0	0	0	0	0	0	0	0	0	0	1		21	6	cloud	wind	5	12	27	35	0	0	0	15	4058	292.1759999999999877218	464	0	
6.6.1	mac	0	2023-09-15	19:43:27	1	1	1	experiment	1	experiment_noU	2	750	473	320	320			30	dynamic	POS	1							10	40	20		30pct	0	30	20		0	0	0	0	0	0	2	0	0	0	0	0	0	0	2	0	4	0	0	0	0	0	0	0	0	0	0	0	1		22	6	cloud	wind	5	12	27	35	0	0	0	16	4058	292.1759999999999877218	464	0	
6.6.1	mac	0	2023-09-15	19:43:27	1	1	1	experiment	1	dispFeedback_noU	2	750	1000	320	320			30	dynamic	POS	1	20	0.6999999999999999556	14	20	23	0.371648359431803299	10	40	20		30pct	0	30	20		0	0	0	0	0	0	2	0	0	0	0	0	0	0	2	0	4	0	0	0	0	0	0	0	0	0	0	0	1		22	6	cloud	wind	5	12	27	35	0	0	0	16	3223	232.0560000000000115961	484	0	23
6.6.1	mac	0	2023-09-15	19:43:27	1	1	1	experiment	1	experiment_noU	2	750	594	460	440			99	dynamic	POS	1					23		10	40	20		30pct	0	30	20		0	0	0	0	0	0	2	0	0	0	0	0	0	0	2	0	4	0	0	0	0	0	0	0	0	0	0	0	1		23	6	cloud	wind	5	12	27	35	0	0	0	17	3223	232.0560000000000115961	484	0	23
6.6.1	mac	0	2023-09-15	19:43:27	1	1	1	experiment	1	dispFeedback_noU	2	750	1000	460	440			99	dynamic	POS	1	26	0.6999999999999999556	18.1999999999999992895	1	10	0.9580209520547700031	10	40	20		30pct	0	30	20		0	0	0	0	0	0	2	0	0	0	0	0	0	0	2	0	4	0	0	0	0	0	0	0	0	0	0	0	1		23	6	cloud	wind	5	12	27	35	0	0	0	17	1794	129.1680000000000063665	485	0	10
6.6.1	mac	0	2023-09-15	19:43:27	1	1	1	experiment	1	experiment_noU	2	750	393	350	460			3	dynamic	POS	1					10		10	40	20		30pct	0	30	20		0	0	0	0	0	0	2	0	0	0	0	0	0	0	2	0	4	0	0	0	0	0	0	0	0	0	0	0	1		24	6	cloud	wind	5	12	27	35	0	0	0	18	1794	129.1680000000000063665	485	0	10
6.6.1	mac	0	2023-09-15	19:43:27	1	1	1	experiment	1	dispFeedback_noU	2	750	1000	350	460			3	dynamic	POS	1	25	0.6999999999999999556	17.5	25	24	0.0432932439826645976	10	40	20		30pct	0	30	20		0	0	0	0	0	0	2	0	0	0	0	0	0	0	2	0	4	0	0	0	0	0	0	0	0	0	0	0	1		24	6	cloud	wind	5	12	27	35	0	0	0	18	1793	129.096000000000003638	510	0	24
6.6.1	mac	0	2023-09-15	19:43:27	1	1	1	experiment	1	experiment_noU	2	750	835	600	410			89	dynamic	POS	1					24		10	40	20		30pct	0	30	20		0	0	0	0	0	0	2	0	0	0	0	0	0	0	2	0	4	0	0	0	0	0	0	0	0	0	0	0	1		25	6	cloud	wind	5	12	27	35	0	0	0	19	1793	129.096000000000003638	510	0	24
6.6.1	mac	0	2023-09-15	19:43:27	1	1	1	experiment	1	dispFeedback_noU	2	750	1000	600	410			89	dynamic	POS	1	37	0.6999999999999999556	25.8999999999999985789	37	37	0.0177433057729488482	10	40	20		30pct	0	30	20		0	0	0	0	0	0	2	0	0	0	0	0	0	0	2	0	4	0	0	0	0	0	0	0	0	0	0	0	1		25	6	cloud	wind	5	12	27	35	0	0	0	19	1535	110.519999999999996021	547	0	37
6.6.1	mac	0	2023-09-15	19:43:27	1	1	1	experiment	1	experiment_U	2	750	1489	420	420			70	dynamic	POS	1					37		10	40	20	90	30pct	0	30	20		0	0	0	0	0	0	2	0	0	0	0	0	0	0	2	0	4	0	0	1	0	0	0	0	0	0	0	0	1		27	7	cloud	wind	5	12	27	35	0	0	3	20	1535	110.519999999999996021	547	0	37
6.6.1	mac	0	2023-09-15	19:43:27	1	1	1	experiment	1	dispFeedback_U	2	750	1000	420	420			70	dynamic	POS	1	67	0.6999999999999999556	46.8999999999999985789	67	68	0.4909294905352707961	10	40	20	90	30pct	0	30	20		0	0	0	0	0	0	2	0	0	0	0	0	0	0	2	0	4	0	1	1	0	0	0	0	0	0	0	0	1		27	7	cloud	wind	5	12	27	35	0	0	3	20	1239	89.2079999999999984084	614	0	68
6.6.1	mac	0	2023-09-15	19:43:27	1	1	1	experiment	1	preFreeze_U	2	750	131	420	420			70	dynamic	POS	1	67	0.6999999999999999556	46.8999999999999985789	67	68	0.4909294905352707961	10	40	20	90	30pct	0	30	20		0	0	0	0	0	0	2	0	0	0	0	0	0	0	2	0	4	0	1	1	0	0	0	0	0	0	0	0	1		28	7	cloud	wind	5	12	27	35	0	0	3	21	1239	89.2079999999999984084	614	0	68
