build	computer.platform	computer.touch	date	time	subject	group	sessionid	blockcode	blocknum	trialcode	latency	randStart	startPos	scrfunc	rtvspos	randStart	circleproportion	mag	freq	ev	inc	rng	startPos	n_revolutions	totalPoints
6.6.1	mac	0	2023-01-13	13:18:23	1	1	1	instructions	1	instructions1	495	1	75	DEV	POS	1	0.3300000000000000155						75	0	0
6.6.1	mac	0	2023-01-13	13:18:23	1	1	1	instructions	1	instructions2	216	1	75	DEV	POS	1	0.3300000000000000155						75	0	0
6.6.1	mac	0	2023-01-13	13:18:23	1	1	1	instructions	1	instructions3	174	1	75	DEV	POS	1	0.3300000000000000155						75	0	0
6.6.1	mac	0	2023-01-13	13:18:23	1	1	1	experiment	2	experiment	365	1	96	DEV	POS	1	0.3300000000000000155						96	2388	0
6.6.1	mac	0	2023-01-13	13:18:23	1	1	1	experiment	2	dispFeedback	1000	1	96	DEV	POS	1	0.3300000000000000155	64	0.5623879780544149831	35.7177122808621660965	0	0.8899891231884222709	96	2388	0
6.6.1	mac	0	2023-01-13	13:18:23	1	1	1	experiment	2	experiment	398	1	97	DEV	POS	1	0.3300000000000000155						97	4820	0
6.6.1	mac	0	2023-01-13	13:18:23	1	1	1	experiment	2	dispFeedback	1000	1	97	DEV	POS	1	0.3300000000000000155	64	0.5473803704946919035	34.7645670683761096598	0	0.6283855490918237585	97	4820	0
6.6.1	mac	0	2023-01-13	13:18:23	1	1	1	experiment	2	experiment	1196	1	56	DEV	POS	1	0.3300000000000000155						56	8067	0
6.6.1	mac	0	2023-01-13	13:18:23	1	1	1	experiment	2	dispFeedback	1000	1	56	DEV	POS	1	0.3300000000000000155	65	0.8315705985382541021	53.6452873543040453796	65	0.4817260362863833856	56	8067	65
6.6.1	mac	0	2023-01-13	13:18:23	1	1	1	experiment	2	experiment	1275	1	56	DEV	POS	1	0.3300000000000000155						56	11378	65
6.6.1	mac	0	2023-01-13	13:18:23	1	1	1	experiment	2	dispFeedback	1000	1	56	DEV	POS	1	0.3300000000000000155	64	0.8102980682230298548	51.462681266149438386	64	0.7734638009624238419	56	11378	129
6.6.1	mac	0	2023-01-13	13:18:23	1	1	1	experiment	2	experiment	950	1	67	DEV	POS	1	0.3300000000000000155						67	14370	129
6.6.1	mac	0	2023-01-13	13:18:23	1	1	1	experiment	2	dispFeedback	1000	1	67	DEV	POS	1	0.3300000000000000155	70	0.7518663199496276039	52.2628319118330892934	70	0.6062239673003144702	67	14370	199
6.6.1	mac	0	2023-01-13	13:18:23	1	1	1	experiment	3	experiment	669	1	44	DEV	POS	1	0.3300000000000000155						44	17089	199
6.6.1	mac	0	2023-01-13	13:18:23	1	1	1	experiment	3	dispFeedback	1000	1	44	DEV	POS	1	0.3300000000000000155	65	0.2706224352541518052	17.458070702896158366	65	0.2626195683289830329	44	17089	264
6.6.1	mac	0	2023-01-13	13:18:23	1	1	1	experiment	3	experiment	3296	1	16	DEV	POS	1	0.3300000000000000155						16	22449	264
6.6.1	mac	0	2023-01-13	13:18:23	1	1	1	experiment	3	dispFeedback	1000	1	16	DEV	POS	1	0.3300000000000000155	67	0.804706531397287983	53.521677864574904504	67	0.1063822473181370298	16	22449	331
6.6.1	mac	0	2023-01-13	13:18:23	1	1	1	experiment	3	experiment	2921	1	29	DEV	POS	1	0.3300000000000000155						29	27392	331
6.6.1	mac	0	2023-01-13	13:18:23	1	1	1	experiment	3	dispFeedback	883	1	29	DEV	POS	1	0.3300000000000000155	68	0.7341405022364468902	49.5624150780736485444	68	0.0865324721873114988	29	27392	399
