build	computer.platform	computer.touch	date	time	subject	group	sessionid	blockcode	blocknum	trialcode	latency	randStart	startPos	scrfunc	rtvspos	randStart	circleproportion	mag	freq	ev	inc	rng	startPos	n_revolutions	totalPoints
6.6.1	mac	0	2023-01-13	13:25:55	1	1	1	instructions	1	instructions1	480	1	75	DEV	POS	1	0.3300000000000000155						75	0	0
6.6.1	mac	0	2023-01-13	13:25:55	1	1	1	instructions	1	instructions2	173	1	75	DEV	POS	1	0.3300000000000000155						75	0	0
6.6.1	mac	0	2023-01-13	13:25:55	1	1	1	instructions	1	instructions3	149	1	75	DEV	POS	1	0.3300000000000000155						75	0	0
6.6.1	mac	0	2023-01-13	13:25:55	1	1	1	experiment	2	experiment	1904	1	45	DEV	POS	1	0.3300000000000000155						45	3865	0
6.6.1	mac	0	2023-01-13	13:25:55	1	1	1	experiment	2	dispFeedback	1000	1	45	DEV	POS	1	0.3300000000000000155	66	0.7894062982169227638	51.7146407660829225961	0	0.7927244612464505735	45	3865	0
6.6.1	mac	0	2023-01-13	13:25:55	1	1	1	experiment	2	experiment	3266	1	16	DEV	POS	1	0.3300000000000000155						16	9177	0
6.6.1	mac	0	2023-01-13	13:25:55	1	1	1	experiment	2	dispFeedback	1000	1	16	DEV	POS	1	0.3300000000000000155	69	0.8127027035428844304	55.6789151047926509364	69	0.4261020506792939644	16	9177	69
6.6.1	mac	0	2023-01-13	13:25:55	1	1	1	experiment	2	experiment	1102	1	59	DEV	POS	1	0.3300000000000000155						59	12311	69
6.6.1	mac	0	2023-01-13	13:25:55	1	1	1	experiment	2	dispFeedback	1000	1	59	DEV	POS	1	0.3300000000000000155	63	0.8164529986371864556	51.0371328426813590795	63	0.7613192898596914393	59	12311	132
6.6.1	mac	0	2023-01-13	13:25:55	1	1	1	experiment	2	experiment	4769	1	99	DEV	POS	1	0.3300000000000000155						99	19111	132
6.6.1	mac	0	2023-01-13	13:25:55	1	1	1	experiment	2	dispFeedback	1000	1	99	DEV	POS	1	0.3300000000000000155	64	0.6526825508722076119	41.4523931387044441976	64	0.5754117708595962721	99	19111	196
6.6.1	mac	0	2023-01-13	13:25:55	1	1	1	experiment	2	experiment	480	1	5	DEV	POS	1	0.3300000000000000155						5	21621	196
6.6.1	mac	0	2023-01-13	13:25:55	1	1	1	experiment	2	dispFeedback	1000	1	5	DEV	POS	1	0.3300000000000000155	63	0.4710191186579537614	29.4437835007221089256	63	0.2867201383427530614	5	21621	259
6.6.1	mac	0	2023-01-13	13:25:55	1	1	1	experiment	3	experiment	2923	1	74	DEV	POS	1	0.3300000000000000155						74	26581	259
6.6.1	mac	0	2023-01-13	13:25:55	1	1	1	experiment	3	dispFeedback	1000	1	74	DEV	POS	1	0.3300000000000000155	69	0.3705244851002909012	25.3849301352268597043	0	0.5837259941230821259	74	26581	259
6.6.1	mac	0	2023-01-13	13:25:55	1	1	1	experiment	3	experiment	453	1	11	DEV	POS	1	0.3300000000000000155						11	29060	259
6.6.1	mac	0	2023-01-13	13:25:55	1	1	1	experiment	3	dispFeedback	1000	1	11	DEV	POS	1	0.3300000000000000155	62	0.4353442514410126307	26.7783746401300426498	0	0.4381981821354008488	11	29060	259
6.6.1	mac	0	2023-01-13	13:25:55	1	1	1	experiment	3	experiment	2241	1	42	DEV	POS	1	0.3300000000000000155						42	33331	259
6.6.1	mac	0	2023-01-13	13:25:55	1	1	1	experiment	3	dispFeedback	1000	1	42	DEV	POS	1	0.3300000000000000155	62	0.7415866762561482695	45.6155922104939293149	62	0.0156741165592507725	42	33331	321
6.6.1	mac	0	2023-01-13	13:25:55	1	1	1	experiment	3	experiment	805	1	89	DEV	POS	1	0.3300000000000000155						89	36162	321
6.6.1	mac	0	2023-01-13	13:25:55	1	1	1	experiment	3	dispFeedback	1000	1	89	DEV	POS	1	0.3300000000000000155	64	0.546140296782456125	34.6858089906982556272	0	0.668579640255444585	89	36162	321
6.6.1	mac	0	2023-01-13	13:25:55	1	1	1	experiment	3	experiment	549	1	16	DEV	POS	1	0.3300000000000000155						16	38723	321
6.6.1	mac	0	2023-01-13	13:25:55	1	1	1	experiment	3	dispFeedback	1000	1	16	DEV	POS	1	0.3300000000000000155	62	0.3967913497748873919	24.4069546871563893831	0	0.7725451522908511892	16	38723	321
6.6.1	mac	0	2023-01-13	13:25:55	1	1	1	endscreen	4	endscreen	3000	1	16	DEV	POS	1	0.3300000000000000155						16	38723	321
