build	computer.platform	computer.touch	date	time	subject	group	sessionid	blockcode	blocknum	trialcode	latency	randStart	startPos	scrfunc	rtvspos	randStart	mag	freq	ev	inc	rng	startPos	fogPos1	fogPos2	chooseUncertainty1	chooseUncertainty2	uncertaintyCount1	uncertaintyCount2	blockCount	ntrials	trialCount	uncertaintyStart1	uncertaintyStart2	uncertainty_block	rt_shifted	totalPoints	totalEarnings	Earnings
6.6.1	mac	0	2023-02-15	16:20:58	12345	1	1	instructions	1	instructions1	720	1	75	IEV	POS	1						75	0	0	0	0	0	0	0	10	0	0	0	0		0	0	
6.6.1	mac	0	2023-02-15	16:20:58	12345	1	1	instructions	1	displayGoodJob	631	1	75	IEV	POS	1						75	0	0	0	0	0	0	0	10	0	0	0	0		0	0	
6.6.1	mac	0	2023-02-15	16:20:58	12345	1	1	instructions	1	feedback2_5	3000	1	75	IEV	POS	1						75	0	0	0	0	0	0	0	10	0	0	0	0		0	0	0
6.6.1	mac	0	2023-02-15	16:20:58	12345	1	1	instructions	1	instructions3	1153	1	75	IEV	POS	1						75	0	0	0	0	0	0	0	10	0	0	0	0		0	0	0
6.6.1	mac	0	2023-02-15	16:20:58	12345	1	1	instructions	1	instructions4	1071	1	75	IEV	POS	1						75	0	0	0	0	0	0	0	10	0	0	0	0		0	0	0
6.6.1	mac	0	2023-02-15	16:20:58	12345	1	1	instructions	1	sampleResponse	3000	1	75	IEV	POS	1						75	0	0	0	0	0	0	0	10	0	0	0	0	1071	0	0	0
6.6.1	mac	0	2023-02-15	16:20:58	12345	1	1	instructions	1	instructions4	2945	1	75	IEV	POS	1						75	0	0	0	0	0	0	0	10	0	0	0	0	1071	0	0	0
6.6.1	mac	0	2023-02-15	16:20:58	12345	1	1	instructions	1	sampleResponse	3000	1	75	IEV	POS	1						75	0	0	0	0	0	0	0	10	0	0	0	0	2945	0	0	0
6.6.1	mac	0	2023-02-15	16:20:58	12345	1	1	instructions	1	instructions5	1301	1	75	IEV	POS	1						75	0	0	0	0	0	0	0	10	0	0	0	0	2945	0	0	0
6.6.1	mac	0	2023-02-15	16:20:58	12345	1	1	instructions	1	countdown	1000	1	75	IEV	POS	1						75	0	0	0	0	0	0	0	10	0	0	0	0	2945	0	0	0
6.6.1	mac	0	2023-02-15	16:20:58	12345	1	1	experiment	2	experiment_noU	683	1	87	IEV	POS	1						87	5	35	0	0	0	0	1	35	0	12	25	0	2945	0	0	0
6.6.1	mac	0	2023-02-15	16:20:58	12345	1	1	experiment	2	dispFeedback_noU	1000	1	87	IEV	POS	1	26	0.8460122753558179109	22.2715204150382319881	26	0.8336072051510231562	87	5	35	0	0	0	0	1	35	1	12	25	0	1283	26	2	2
6.6.1	mac	0	2023-02-15	16:20:58	12345	1	1	experiment	2	experiment_noU	430	1	68	IEV	POS	1						68	5	35	0	0	0	0	1	35	1	12	25	0	1283	26	2	2
6.6.1	mac	0	2023-02-15	16:20:58	12345	1	1	experiment	2	dispFeedback_noU	1000	1	68	IEV	POS	1	22	0.8997328449670773942	19.512329472871936531	22	0.5556679739513592509	68	5	35	0	0	0	0	1	35	2	12	25	0	80	48	3	1
6.6.1	mac	0	2023-02-15	16:20:58	12345	1	1	experiment	2	experiment_noU	3562	1	94	IEV	POS	1						94	5	35	0	0	0	0	1	35	2	12	25	0	80	48	3	1
6.6.1	mac	0	2023-02-15	16:20:58	12345	1	1	experiment	2	dispFeedback_noU	1000	1	94	IEV	POS	1	204	0.2747030506057362431	56.0729313920203722432	1	0.275042226136439083	94	5	35	0	0	0	0	1	35	3	12	25	0	4512	49	4	1
6.6.1	mac	0	2023-02-15	16:20:58	12345	1	1	experiment	2	experiment_noU	2746	1	28	IEV	POS	1						28	5	35	0	0	0	0	1	35	3	12	25	0	4512	49	4	1
6.6.1	mac	0	2023-02-15	16:20:58	12345	1	1	experiment	2	dispFeedback_noU	1000	1	28	IEV	POS	1	16	0.8953531527158138381	14.095457561935679891	16	0.2992553646441677984	28	5	35	0	0	0	0	1	35	4	12	25	0	396	65	5	1
6.6.1	mac	0	2023-02-15	16:20:58	12345	1	1	experiment	2	experiment_noU	1753	1	95	IEV	POS	1						95	5	35	0	0	0	0	1	35	4	12	25	0	396	65	5	1
6.6.1	mac	0	2023-02-15	16:20:58	12345	1	1	experiment	2	dispFeedback_noU	1000	1	95	IEV	POS	1	61	0.6317956574960986726	38.2671800943774940151	1	0.8524513316462867252	95	5	35	0	0	0	0	1	35	5	12	25	0	2753	66	6	1
6.6.1	mac	0	2023-02-15	16:20:58	12345	1	1	experiment	2	experiment_noU	1282	1	21	IEV	POS	1						21	5	35	0	0	0	0	1	35	5	12	25	0	2753	66	6	1
6.6.1	mac	0	2023-02-15	16:20:58	12345	1	1	experiment	2	dispFeedback_noU	1000	1	21	IEV	POS	1	110	0.4637755343195758551	50.996551417778178461	110	0.439351402791065937	21	5	35	0	0	0	0	1	35	6	12	25	0	3582	176	14	8
6.6.1	mac	0	2023-02-15	16:20:58	12345	1	1	experiment	2	experiment_noU	3084	1	86	IEV	POS	1						86	5	35	0	0	0	0	1	35	6	12	25	0	3582	176	14	8
6.6.1	mac	0	2023-02-15	16:20:58	12345	1	1	experiment	2	dispFeedback_noU	1000	1	86	IEV	POS	1	114	0.452907819499514086	51.4304514493689097776	114	0.3873849584225995679	86	5	35	0	0	0	0	1	35	7	12	25	0	3634	290	22	8
6.6.1	mac	0	2023-02-15	16:20:58	12345	1	1	experiment	2	experiment_noU	3088	1	88	IEV	POS	1						88	5	35	0	0	0	0	1	35	7	12	25	0	3634	290	22	8
6.6.1	mac	0	2023-02-15	16:20:58	12345	1	1	experiment	2	dispFeedback_noU	1000	1	88	IEV	POS	1	117	0.4311862553415227728	50.537703047733870676	117	0.1752511277271553702	88	5	35	0	0	0	0	1	35	8	12	25	0	3738	407	30	8
6.6.1	mac	0	2023-02-15	16:20:58	12345	1	1	experiment	2	experiment_noU	2435	1	8	IEV	POS	1						8	5	35	0	0	0	0	1	35	8	12	25	0	3738	407	30	8
6.6.1	mac	0	2023-02-15	16:20:58	12345	1	1	experiment	2	dispFeedback_noU	1000	1	8	IEV	POS	1	146	0.3594439096198223105	52.5246873883349536527	1	0.8335294604379519523	8	5	35	0	0	0	0	1	35	9	12	25	0	4085	408	31	1
6.6.1	mac	0	2023-02-15	16:20:58	12345	1	1	experiment	2	experiment_noU	591	1	36	IEV	POS	1						36	5	35	0	0	0	0	1	35	9	12	25	0	4085	408	31	1
6.6.1	mac	0	2023-02-15	16:20:58	12345	1	1	experiment	2	dispFeedback_noU	1000	1	36	IEV	POS	1	110	0.4514448953007491605	49.6821783354217814122	110	0.416961238118112365	36	5	35	0	0	0	0	1	35	10	12	25	0	3641	518	39	8
6.6.1	mac	0	2023-02-15	16:20:58	12345	1	1	experiment	2	experiment_noU	3349	1	83	IEV	POS	1						83	5	35	0	0	0	0	1	35	10	12	25	0	3641	518	39	8
6.6.1	mac	0	2023-02-15	16:20:58	12345	1	1	experiment	2	dispFeedback_noU	1000	1	83	IEV	POS	1	123	0.4288915150752926619	52.7765069019938266592	1	0.638109842231057045	83	5	35	0	0	0	0	1	35	11	12	25	0	3749	519	40	1
6.6.1	mac	0	2023-02-15	16:20:58	12345	1	1	experiment	2	experiment_noU	1519	1	16	IEV	POS	1						16	5	35	0	0	0	0	1	35	11	12	25	0	3749	519	40	1
6.6.1	mac	0	2023-02-15	16:20:58	12345	1	1	experiment	2	dispFeedback_noU	1000	1	16	IEV	POS	1	106	0.4664920552502017093	49.4867662221272510692	106	0.2087114484069662879	16	5	35	0	0	0	0	1	35	12	12	25	1	3569	625	48	8
6.6.1	mac	0	2023-02-15	16:20:58	12345	1	1	experiment	2	experiment_U	512	1	33	IEV	POS	1						33	5	35	0	0	0	0	1	35	12	12	25	1	3569	625	48	8
6.6.1	mac	0	2023-02-15	16:20:58	12345	1	1	experiment	2	dispFeedback_U	1000	1	33	IEV	POS	1	92	0.4992386505988734569	46.0029609283684592924	1	0.9866774585067009662	33	5	35	1	0	1	0	1	35	13	12	25	1	3412	626	49	1
6.6.1	mac	0	2023-02-15	16:20:58	12345	1	1	experiment	2	experiment_U	1210	1	23	IEV	POS	1						23	5	35	1	0	1	0	1	35	13	12	25	1	3412	626	49	1
6.6.1	mac	0	2023-02-15	16:20:58	12345	1	1	experiment	2	dispFeedback_U	1000	1	23	IEV	POS	1	105	0.4579237924398982251	48.0261882545127249955	1	0.9958886574012899562	23	5	35	2	0	2	0	1	35	14	12	25	1	3610	627	50	1
6.6.1	mac	0	2023-02-15	16:20:58	12345	1	1	experiment	2	experiment_U	2664	1	100	IEV	POS	1						100	5	35	2	0	2	0	1	35	14	12	25	1	3610	627	50	1
6.6.1	mac	0	2023-02-15	16:20:58	12345	1	1	experiment	2	dispFeedback_U	1000	1	100	IEV	POS	1	136	0.3945951144120060095	53.5588858129851459466	1	0.5064283063417366337	100	5	35	3	0	3	0	1	35	15	12	25	1	3914	628	51	1
6.6.1	mac	0	2023-02-15	16:20:58	12345	1	1	experiment	2	experiment_U	509	1	43	IEV	POS	1						43	5	35	3	0	3	0	1	35	15	12	25	1	3914	628	51	1
6.6.1	mac	0	2023-02-15	16:20:58	12345	1	1	experiment	2	dispFeedback_U	1000	1	43	IEV	POS	1	135	0.3956299464962509949	53.5240209900490953032	1	0.40622476218413206	43	5	35	4	0	4	0	1	35	16	12	25	0	3909	629	52	1
6.6.1	mac	0	2023-02-15	16:20:58	12345	1	1	experiment	2	experiment_noU	328	1	55	IEV	POS	1						55	5	35	4	0	4	0	1	35	16	12	25	0	3909	629	52	1
6.6.1	mac	0	2023-02-15	16:20:58	12345	1	1	experiment	2	dispFeedback_noU	1000	1	55	IEV	POS	1	175	0.3105756096013295164	54.4904003549768631842	1	0.7582648505359573798	55	5	35	4	0	4	0	1	35	17	12	25	0	4328	630	53	1
6.6.1	mac	0	2023-02-15	16:20:58	12345	1	1	experiment	2	experiment_noU	3385	1	91	IEV	POS	1						91	5	35	4	0	4	0	1	35	17	12	25	0	4328	630	53	1
6.6.1	mac	0	2023-02-15	16:20:58	12345	1	1	experiment	2	dispFeedback_noU	1000	1	91	IEV	POS	1	159	0.3391546887759843143	53.9181381951239444561	1	0.8992679270215491183	91	5	35	4	0	4	0	1	35	18	12	25	0	4185	631	54	1
6.6.1	mac	0	2023-02-15	16:20:58	12345	1	1	experiment	2	experiment_noU	640	1	43	IEV	POS	1						43	5	35	4	0	4	0	1	35	18	12	25	0	4185	631	54	1
6.6.1	mac	0	2023-02-15	16:20:58	12345	1	1	experiment	2	dispFeedback_noU	1000	1	43	IEV	POS	1	143	0.3686438508938024716	52.5559375678898490492	1	0.5064534234130879664	43	5	35	4	0	4	0	1	35	19	12	25	0	4040	632	55	1
6.6.1	mac	0	2023-02-15	16:20:58	12345	1	1	experiment	2	experiment_noU	341	1	56	IEV	POS	1						56	5	35	4	0	4	0	1	35	19	12	25	0	4040	632	55	1
6.6.1	mac	0	2023-02-15	16:20:58	12345	1	1	experiment	2	dispFeedback_noU	1000	1	56	IEV	POS	1	190	0.2981705553384816354	56.6506042792637103389	190	0.1442754897624895782	56	5	35	4	0	4	0	1	35	20	12	25	0	4391	822	65	10
6.6.1	mac	0	2023-02-15	16:20:58	12345	1	1	experiment	2	experiment_noU	2485	1	13	IEV	POS	1						13	5	35	4	0	4	0	1	35	20	12	25	0	4391	822	65	10
6.6.1	mac	0	2023-02-15	16:20:58	12345	1	1	experiment	2	dispFeedback_noU	1000	1	13	IEV	POS	1	186	0.2993467137478318385	55.7250612583432953784	1	0.797665797592528536	13	5	35	4	0	4	0	1	35	21	12	25	0	4385	823	66	1
6.6.1	mac	0	2023-02-15	16:20:58	12345	1	1	experiment	2	experiment_noU	1248	1	23	IEV	POS	1						23	5	35	4	0	4	0	1	35	21	12	25	0	4385	823	66	1
6.6.1	mac	0	2023-02-15	16:20:58	12345	1	1	experiment	2	dispFeedback_noU	1000	1	23	IEV	POS	1	109	0.4499820312250650822	48.8453564819130363617	1	0.6274398899701051358	23	5	35	4	0	4	0	1	35	22	12	25	0	3648	824	67	1
6.6.1	mac	0	2023-02-15	16:20:58	12345	1	1	experiment	2	experiment_noU	2189	1	99	IEV	POS	1						99	5	35	4	0	4	0	1	35	22	12	25	0	3648	824	67	1
6.6.1	mac	0	2023-02-15	16:20:58	12345	1	1	experiment	2	dispFeedback_noU	1000	1	99	IEV	POS	1	97	0.5040200110160668601	48.7816603909506909531	97	0.0665270174077076393	99	5	35	4	0	4	0	1	35	23	12	25	0	3389	921	74	7
6.6.1	mac	0	2023-02-15	16:20:58	12345	1	1	experiment	2	experiment_noU	355	1	44	IEV	POS	1						44	5	35	4	0	4	0	1	35	23	12	25	0	3389	921	74	7
6.6.1	mac	0	2023-02-15	16:20:58	12345	1	1	experiment	2	dispFeedback_noU	1000	1	44	IEV	POS	1	124	0.417222241240283731	51.9382439614416853146	1	0.7146759470260413138	44	5	35	4	0	4	0	1	35	24	12	25	0	3805	922	75	1
6.6.1	mac	0	2023-02-15	16:20:58	12345	1	1	experiment	2	experiment_noU	4211	1	78	IEV	POS	1						78	5	35	4	0	4	0	1	35	24	12	25	0	3805	922	75	1
6.6.1	mac	0	2023-02-15	16:20:58	12345	1	1	experiment	2	dispFeedback_noU	1000	1	78	IEV	POS	1	178	0.3040625808197507385	54.0789958018786904859	178	0.2577787340287535089	78	5	35	4	0	4	0	1	35	25	12	25	2	4361	1100	85	10
6.6.1	mac	0	2023-02-15	16:20:58	12345	1	1	experiment	2	experiment_U	4681	1	70	IEV	POS	1						70	5	35	4	0	4	0	1	35	25	12	25	2	4361	1100	85	10
6.6.1	mac	0	2023-02-15	16:20:58	12345	1	1	experiment	2	dispFeedback_U	1000	1	70	IEV	POS	1	193	0.2903588821091819261	55.958834704038153518	1	0.345842991570439906	70	5	35	4	0	4	1	1	35	26	12	25	2	4431	1101	86	1
6.6.1	mac	0	2023-02-15	16:20:58	12345	1	1	experiment	2	experiment_U	4860	1	67	IEV	POS	1						67	5	35	4	0	4	1	1	35	26	12	25	2	4431	1101	86	1
6.6.1	mac	0	2023-02-15	16:20:58	12345	1	1	experiment	2	dispFeedback_U	1000	1	67	IEV	POS	1	194	0.2847281414972248625	55.2471738397186413749	194	0.1599254110269074936	67	5	35	4	0	4	2	1	35	27	12	25	2	4460	1295	96	10
6.6.1	mac	0	2023-02-15	16:20:58	12345	1	1	experiment	2	experiment_U	4679	1	69	IEV	POS	1						69	5	35	4	0	4	2	1	35	27	12	25	2	4460	1295	96	10
6.6.1	mac	0	2023-02-15	16:20:58	12345	1	1	experiment	2	dispFeedback_U	1000	1	69	IEV	POS	1	184	0.3005240023753301681	55.393343425724488327	1	0.9227980538091618001	69	5	35	4	0	4	3	1	35	28	12	25	2	4379	1296	97	1
6.6.1	mac	0	2023-02-15	16:20:58	12345	1	1	experiment	2	experiment_U	4155	1	81	IEV	POS	1						81	5	35	4	0	4	3	1	35	28	12	25	2	4379	1296	97	1
6.6.1	mac	0	2023-02-15	16:20:58	12345	1	1	experiment	2	dispFeedback_U	1000	1	81	IEV	POS	1	200	0.2856969578010468136	57.2198391448285477168	200	0.0109825292627752126	81	5	35	4	0	4	4	1	35	29	12	25	2	4455	1496	107	10
6.6.1	mac	0	2023-02-15	16:20:58	12345	1	1	experiment	2	experiment_U	1075	1	43	IEV	POS	1						43	5	35	4	0	4	4	1	35	29	12	25	2	4455	1496	107	10
6.6.1	mac	0	2023-02-15	16:20:58	12345	1	1	experiment	2	dispFeedback_U	1000	1	43	IEV	POS	1	196	0.2818267602932721938	55.3281366503795410949	196	0.0743975765245029619	43	5	35	4	0	4	5	1	35	30	12	25	2	4475	1692	117	10
6.6.1	mac	0	2023-02-15	16:20:58	12345	1	1	experiment	2	experiment_U	3702	1	92	IEV	POS	1						92	5	35	4	0	4	5	1	35	30	12	25	2	4475	1692	117	10
6.6.1	mac	0	2023-02-15	16:20:58	12345	1	1	experiment	2	dispFeedback_U	1000	1	92	IEV	POS	1	212	0.2670559530795506564	56.5290769905277201701	1	0.7328371819418010302	92	5	35	4	0	4	6	1	35	31	12	25	2	4552	1693	118	1
6.6.1	mac	0	2023-02-15	16:20:58	12345	1	1	experiment	2	experiment_U	415	1	61	IEV	POS	1						61	5	35	4	0	4	6	1	35	31	12	25	2	4552	1693	118	1
6.6.1	mac	0	2023-02-15	16:20:58	12345	1	1	experiment	2	dispFeedback_U	1000	1	61	IEV	POS	1	243	0.2365111691095990454	57.4354599107148118264	1	0.5767015688067073098	61	5	35	4	0	4	7	1	35	32	12	25	2	4715	1694	119	1
6.6.1	mac	0	2023-02-15	16:20:58	12345	1	1	experiment	2	experiment_U	652	1	47	IEV	POS	1						47	5	35	4	0	4	7	1	35	32	12	25	2	4715	1694	119	1
6.6.1	mac	0	2023-02-15	16:20:58	12345	1	1	experiment	2	dispFeedback_U	1000	1	47	IEV	POS	1	169	0.3256956686451180083	54.995087876817692063	169	0.0066218483277181743	47	5	35	4	0	4	8	1	35	33	12	25	2	4252	1863	129	10
6.6.1	mac	0	2023-02-15	16:20:58	12345	1	1	experiment	2	experiment_U	320	1	59	IEV	POS	1						59	5	35	4	0	4	8	1	35	33	12	25	2	4252	1863	129	10
6.6.1	mac	0	2023-02-15	16:20:58	12345	1	1	experiment	2	dispFeedback_U	1000	1	59	IEV	POS	1	203	0.2731690719716829974	55.5649683084498349217	1	0.4928371278785255716	59	5	35	4	0	4	9	1	35	34	12	25	2	4520	1864	130	1
6.6.1	mac	0	2023-02-15	16:20:58	12345	1	1	experiment	2	experiment_U	3217	1	97	IEV	POS	1						97	5	35	4	0	4	9	1	35	34	12	25	2	4520	1864	130	1
6.6.1	mac	0	2023-02-15	16:20:58	12345	1	1	experiment	2	dispFeedback_U	1000	1	97	IEV	POS	1	174	0.3127538275117463518	54.4237005819951917829	1	0.5566883789274581495	97	5	35	4	0	4	10	1	35	35	12	25	2	4317	1865	131	1
6.6.1	mac	0	2023-02-15	16:20:58	12345	1	1	experiment	3	experiment_noU	1534	1	29	DEV	POS	1						29	50	15	0	0	0	0	2	36	0	9	31	2	4317	1865	131	1
6.6.1	mac	0	2023-02-15	16:20:58	12345	1	1	experiment	3	dispFeedback_noU	1000	1	29	DEV	POS	1	88	0.2609856214130155116	22.9769269482219051781	1	0.441028426969663323	29	50	15	0	0	0	0	2	36	1	9	31	0	4234	1866	132	1
6.6.1	mac	0	2023-02-15	16:20:58	12345	1	1	experiment	3	experiment_noU	495	1	47	DEV	POS	1						47	50	15	0	0	0	0	2	36	1	9	31	0	4234	1866	132	1
6.6.1	mac	0	2023-02-15	16:20:58	12345	1	1	experiment	3	dispFeedback_noU	1000	1	47	DEV	POS	1	84	0.2725949613849004693	22.8307248188366216368	1	0.68779730603280409	47	50	15	0	0	0	0	2	36	2	9	31	0	4095	1867	133	1
6.6.1	mac	0	2023-02-15	16:20:58	12345	1	1	experiment	3	experiment_noU	409	1	47	DEV	POS	1						47	50	15	0	0	0	0	2	36	2	9	31	0	4095	1867	133	1
6.6.1	mac	0	2023-02-15	16:20:58	12345	1	1	experiment	3	dispFeedback_noU	1000	1	47	DEV	POS	1	86	0.2795673756961861711	23.9232257202903433324	86	0.1431781119069033548	47	50	15	0	0	0	0	2	36	3	9	31	0	4009	1953	139	6
6.6.1	mac	0	2023-02-15	16:20:58	12345	1	1	experiment	3	experiment_noU	2760	1	6	DEV	POS	1						6	50	15	0	0	0	0	2	36	3	9	31	0	4009	1953	139	6
6.6.1	mac	0	2023-02-15	16:20:58	12345	1	1	experiment	3	dispFeedback_noU	1000	1	6	DEV	POS	1	80	0.2544296214450180171	20.4031977980471950218	1	0.5607045960055442313	6	50	15	0	0	0	0	2	36	4	9	31	0	4310	1954	140	1
6.6.1	mac	0	2023-02-15	16:20:58	12345	1	1	experiment	3	experiment_noU	1465	1	33	DEV	POS	1						33	50	15	0	0	0	0	2	36	4	9	31	0	4310	1954	140	1
6.6.1	mac	0	2023-02-15	16:20:58	12345	1	1	experiment	3	dispFeedback_noU	1000	1	33	DEV	POS	1	88	0.2495817769738681302	22.0383439908937539542	1	0.8954498637224197477	33	50	15	0	0	0	0	2	36	5	9	31	0	4365	1955	141	1
6.6.1	mac	0	2023-02-15	16:20:58	12345	1	1	experiment	3	experiment_noU	4269	1	74	DEV	POS	1						74	50	15	0	0	0	0	2	36	5	9	31	0	4365	1955	141	1
6.6.1	mac	0	2023-02-15	16:20:58	12345	1	1	experiment	3	dispFeedback_noU	1000	1	74	DEV	POS	1	81	0.2622611316994309938	21.2454085211920613574	1	0.6659912710697369898	74	50	15	0	0	0	0	2	36	6	9	31	0	4219	1956	142	1
6.6.1	mac	0	2023-02-15	16:20:58	12345	1	1	experiment	3	experiment_noU	2192	1	15	DEV	POS	1						15	50	15	0	0	0	0	2	36	6	9	31	0	4219	1956	142	1
6.6.1	mac	0	2023-02-15	16:20:58	12345	1	1	experiment	3	dispFeedback_noU	1000	1	15	DEV	POS	1	83	0.2645425289165881377	21.9447458592998962956	83	0.1635341828604075509	15	50	15	0	0	0	0	2	36	7	9	31	0	4192	2039	148	6
6.6.1	mac	0	2023-02-15	16:20:58	12345	1	1	experiment	3	experiment_noU	1800	1	98	DEV	POS	1						98	50	15	0	0	0	0	2	36	7	9	31	0	4192	2039	148	6
6.6.1	mac	0	2023-02-15	16:20:58	12345	1	1	experiment	3	dispFeedback_noU	1000	1	98	DEV	POS	1	80	0.3636791483207942877	29.1033600062306128109	1	0.9208062218783438224	98	50	15	0	0	0	0	2	36	8	9	31	0	2950	2040	149	1
6.6.1	mac	0	2023-02-15	16:20:58	12345	1	1	experiment	3	experiment_noU	317	1	34	DEV	POS	1						34	50	15	0	0	0	0	2	36	8	9	31	0	2950	2040	149	1
6.6.1	mac	0	2023-02-15	16:20:58	12345	1	1	experiment	3	dispFeedback_noU	1000	1	34	DEV	POS	1	87	0.3373013893820442366	29.2972074418599923717	1	0.9507416465670666117	34	50	15	0	0	0	0	2	36	9	9	31	1	3267	2041	150	1
6.6.1	mac	0	2023-02-15	16:20:58	12345	1	1	experiment	3	experiment_U	1567	1	57	DEV	POS	1						57	50	15	0	0	0	0	2	36	9	9	31	1	3267	2041	150	1
6.6.1	mac	0	2023-02-15	16:20:58	12345	1	1	experiment	3	dispFeedback_U	1000	1	57	DEV	POS	1	72	0.722849098705905746	52.1924072019560938429	72	0.1758076204396336328	57	50	15	1	0	1	0	2	36	10	9	31	1	667	2113	155	5
6.6.1	mac	0	2023-02-15	16:20:58	12345	1	1	experiment	3	experiment_U	400	1	96	DEV	POS	1						96	50	15	1	0	1	0	2	36	10	9	31	1	667	2113	155	5
6.6.1	mac	0	2023-02-15	16:20:58	12345	1	1	experiment	3	dispFeedback_U	1000	1	96	DEV	POS	1	78	0.5559910067849250792	43.2184214907631627511	78	0.5001163420966165951	96	50	15	1	0	2	0	2	36	11	9	31	1	1450	2191	161	6
6.6.1	mac	0	2023-02-15	16:20:58	12345	1	1	experiment	3	experiment_U	1726	1	50	DEV	POS	1						50	50	15	1	0	2	0	2	36	11	9	31	1	1450	2191	161	6
6.6.1	mac	0	2023-02-15	16:20:58	12345	1	1	experiment	3	dispFeedback_U	1000	1	50	DEV	POS	1	67	0.7707147116002283083	51.4057011532477261539	1	0.9681271745283452912	50	50	15	2	0	3	0	2	36	12	9	31	1	476	2192	162	1
6.6.1	mac	0	2023-02-15	16:20:58	12345	1	1	experiment	3	experiment_U	3319	1	31	DEV	POS	1						31	50	15	2	0	3	0	2	36	12	9	31	1	476	2192	162	1
6.6.1	mac	0	2023-02-15	16:20:58	12345	1	1	experiment	3	dispFeedback_U	1000	1	31	DEV	POS	1	72	0.620503061348094187	44.7137123197398480556	1	0.7835490176881544366	31	50	15	2	0	4	0	2	36	13	9	31	1	1119	2193	163	1
6.6.1	mac	0	2023-02-15	16:20:58	12345	1	1	experiment	3	experiment_U	672	1	91	DEV	POS	1						91	50	15	2	0	4	0	2	36	13	9	31	1	1119	2193	163	1
6.6.1	mac	0	2023-02-15	16:20:58	12345	1	1	experiment	3	dispFeedback_U	1000	1	91	DEV	POS	1	77	0.5520211960069336676	42.4140168941940984837	77	0.1811838893176019039	91	50	15	2	0	5	0	2	36	14	9	31	1	1472	2270	169	6
6.6.1	mac	0	2023-02-15	16:20:58	12345	1	1	experiment	3	experiment_U	1716	1	71	DEV	POS	1						71	50	15	2	0	5	0	2	36	14	9	31	1	1472	2270	169	6
6.6.1	mac	0	2023-02-15	16:20:58	12345	1	1	experiment	3	dispFeedback_U	1000	1	71	DEV	POS	1	77	0.5441996356726392925	41.9221960726841302858	1	0.6001031926367672575	71	50	15	2	0	6	0	2	36	15	9	31	1	1516	2271	170	1
6.6.1	mac	0	2023-02-15	16:20:58	12345	1	1	experiment	3	experiment_U	430	1	3	DEV	POS	1						3	50	15	2	0	6	0	2	36	15	9	31	1	1516	2271	170	1
6.6.1	mac	0	2023-02-15	16:20:58	12345	1	1	experiment	3	dispFeedback_U	1000	1	3	DEV	POS	1	76	0.4928667358680836053	37.6351786726476333911	76	0.3066529732445844036	3	50	15	2	0	7	0	2	36	16	9	31	1	1830	2347	176	6
6.6.1	mac	0	2023-02-15	16:20:58	12345	1	1	experiment	3	experiment_U	331	1	90	DEV	POS	1						90	50	15	2	0	7	0	2	36	16	9	31	1	1830	2347	176	6
6.6.1	mac	0	2023-02-15	16:20:58	12345	1	1	experiment	3	dispFeedback_U	1000	1	90	DEV	POS	1	70	0.6284830965358426669	43.8991061352886688951	70	0.0382727407939435771	90	50	15	2	0	8	0	2	36	17	9	31	1	1081	2417	181	5
6.6.1	mac	0	2023-02-15	16:20:58	12345	1	1	experiment	3	experiment_U	349	1	4	DEV	POS	1						4	50	15	2	0	8	0	2	36	17	9	31	1	1081	2417	181	5
6.6.1	mac	0	2023-02-15	16:20:58	12345	1	1	experiment	3	dispFeedback_U	1000	1	4	DEV	POS	1	78	0.4975920846709093182	38.9298428845124107056	78	0.4937794998972163119	4	50	15	2	0	9	0	2	36	18	9	31	1	1799	2495	187	6
6.6.1	mac	0	2023-02-15	16:20:58	12345	1	1	experiment	3	experiment_U	3693	1	40	DEV	POS	1						40	50	15	2	0	9	0	2	36	18	9	31	1	1799	2495	187	6
6.6.1	mac	0	2023-02-15	16:20:58	12345	1	1	experiment	3	dispFeedback_U	1000	1	40	DEV	POS	1	79	0.4762540494036442418	37.5272470479436037749	79	0.1634301501706778292	40	50	15	2	0	10	0	2	36	19	9	31	1	1943	2574	193	6
6.6.1	mac	0	2023-02-15	16:20:58	12345	1	1	experiment	3	experiment_U	3911	1	25	DEV	POS	1						25	50	15	2	0	10	0	2	36	19	9	31	1	1943	2574	193	6
6.6.1	mac	0	2023-02-15	16:20:58	12345	1	1	experiment	3	dispFeedback_U	1000	1	25	DEV	POS	1	76	0.5631254330729771329	42.5436593440000336841	76	0.4027971325914369016	25	50	15	2	0	11	0	2	36	20	9	31	1	1411	2650	199	6
6.6.1	mac	0	2023-02-15	16:20:58	12345	1	1	experiment	3	experiment_U	377	1	10	DEV	POS	1						10	50	15	2	0	11	0	2	36	20	9	31	1	1411	2650	199	6
6.6.1	mac	0	2023-02-15	16:20:58	12345	1	1	experiment	3	dispFeedback_U	1000	1	10	DEV	POS	1	76	0.4511814054051688228	34.5017128425726582464	1	0.9477519835223797706	10	50	15	2	0	12	0	2	36	21	9	31	1	2127	2651	200	1
6.6.1	mac	0	2023-02-15	16:20:58	12345	1	1	experiment	3	experiment_U	280	1	12	DEV	POS	1						12	50	15	2	0	12	0	2	36	21	9	31	1	2127	2651	200	1
6.6.1	mac	0	2023-02-15	16:20:58	12345	1	1	experiment	3	dispFeedback_U	1000	1	12	DEV	POS	1	80	0.4507921146144475699	36.2798935954410310956	80	0.3831835897600239793	12	50	15	2	0	13	0	2	36	22	9	31	1	2130	2731	206	6
6.6.1	mac	0	2023-02-15	16:20:58	12345	1	1	experiment	3	experiment_U	251	1	4	DEV	POS	1						4	50	15	2	0	13	0	2	36	22	9	31	1	2130	2731	206	6
6.6.1	mac	0	2023-02-15	16:20:58	12345	1	1	experiment	3	dispFeedback_U	1000	1	4	DEV	POS	1	82	0.5130169386029330703	41.9834624530010884769	82	0.0174053181003325889	4	50	15	2	0	14	0	2	36	23	9	31	1	1701	2813	212	6
6.6.1	mac	0	2023-02-15	16:20:58	12345	1	1	experiment	3	experiment_U	1681	1	77	DEV	POS	1						77	50	15	2	0	14	0	2	36	23	9	31	1	1701	2813	212	6
6.6.1	mac	0	2023-02-15	16:20:58	12345	1	1	experiment	3	dispFeedback_U	1000	1	77	DEV	POS	1	74	0.5003695477325751373	37.1094921192605511351	74	0.2343179113777163203	77	50	15	2	0	15	0	2	36	24	9	31	1	1781	2887	217	5
6.6.1	mac	0	2023-02-15	16:20:58	12345	1	1	experiment	3	experiment_U	443	1	11	DEV	POS	1						11	50	15	2	0	15	0	2	36	24	9	31	1	1781	2887	217	5
6.6.1	mac	0	2023-02-15	16:20:58	12345	1	1	experiment	3	dispFeedback_U	1000	1	11	DEV	POS	1	83	0.4365635181080830263	36.178825289004535648	83	0.3510747198832860905	11	50	15	2	0	16	0	2	36	25	9	31	1	2243	2970	223	6
6.6.1	mac	0	2023-02-15	16:20:58	12345	1	1	experiment	3	experiment_U	2231	1	73	DEV	POS	1						73	50	15	2	0	16	0	2	36	25	9	31	1	2243	2970	223	6
6.6.1	mac	0	2023-02-15	16:20:58	12345	1	1	experiment	3	dispFeedback_U	1000	1	73	DEV	POS	1	76	0.4506624861667035686	34.4684032774936071064	76	0.0892326061355957351	73	50	15	2	0	17	0	2	36	26	9	31	1	2131	3046	229	6
6.6.1	mac	0	2023-02-15	16:20:58	12345	1	1	experiment	3	experiment_U	1467	1	88	DEV	POS	1						88	50	15	2	0	17	0	2	36	26	9	31	1	2131	3046	229	6
6.6.1	mac	0	2023-02-15	16:20:58	12345	1	1	experiment	3	dispFeedback_U	1000	1	88	DEV	POS	1	78	0.452483443590647294	35.4902120596320571622	78	0.1939409745843012345	88	50	15	2	0	18	0	2	36	27	9	31	1	2117	3124	235	6
6.6.1	mac	0	2023-02-15	16:20:58	12345	1	1	experiment	3	experiment_U	398	1	36	DEV	POS	1						36	50	15	2	0	18	0	2	36	27	9	31	1	2117	3124	235	6
6.6.1	mac	0	2023-02-15	16:20:58	12345	1	1	experiment	3	dispFeedback_U	1000	1	36	DEV	POS	1	85	0.3231126285106340479	27.5627401107115801437	85	0.0445827334291727106	36	50	15	2	0	19	0	2	36	28	9	31	0	3448	3209	241	6
6.6.1	mac	0	2023-02-15	16:20:58	12345	1	1	experiment	3	experiment_noU	380	1	27	DEV	POS	1						27	50	15	2	0	19	0	2	36	28	9	31	0	3448	3209	241	6
6.6.1	mac	0	2023-02-15	16:20:58	12345	1	1	experiment	3	dispFeedback_noU	1000	1	27	DEV	POS	1	80	0.3610660611228980743	28.9238035297513675914	1	0.7165332973740373701	27	50	15	2	0	19	0	2	36	29	9	31	0	2980	3210	242	1
6.6.1	mac	0	2023-02-15	16:20:58	12345	1	1	experiment	3	experiment_noU	1211	1	90	DEV	POS	1						90	50	15	2	0	19	0	2	36	29	9	31	0	2980	3210	242	1
6.6.1	mac	0	2023-02-15	16:20:58	12345	1	1	experiment	3	dispFeedback_noU	1000	1	90	DEV	POS	1	83	0.4736949112561177344	39.2525264160338807073	83	0.302707116655704378	90	50	15	2	0	19	0	2	36	30	9	31	0	1961	3293	248	6
6.6.1	mac	0	2023-02-15	16:20:58	12345	1	1	experiment	3	experiment_noU	1129	1	92	DEV	POS	1						92	50	15	2	0	19	0	2	36	30	9	31	0	1961	3293	248	6
6.6.1	mac	0	2023-02-15	16:20:58	12345	1	1	experiment	3	dispFeedback_noU	1000	1	92	DEV	POS	1	80	0.4711592993691376963	37.6606997909282128489	80	0.3449766611086615975	92	50	15	2	0	19	0	2	36	31	9	31	2	1979	3373	254	6
6.6.1	mac	0	2023-02-15	16:20:58	12345	1	1	experiment	3	experiment_U	3066	1	63	DEV	POS	1						63	50	15	2	0	19	0	2	36	31	9	31	2	1979	3373	254	6
6.6.1	mac	0	2023-02-15	16:20:58	12345	1	1	experiment	3	dispFeedback_U	1000	1	63	DEV	POS	1	82	0.4108169581782721291	33.5235850051055521703	1	0.6636984114683461833	63	50	15	2	0	19	1	2	36	32	9	31	2	2466	3374	255	1
6.6.1	mac	0	2023-02-15	16:20:58	12345	1	1	experiment	3	experiment_U	2109	1	68	DEV	POS	1						68	50	15	2	0	19	1	2	36	32	9	31	2	2466	3374	255	1
6.6.1	mac	0	2023-02-15	16:20:58	12345	1	1	experiment	3	dispFeedback_U	1000	1	68	DEV	POS	1	74	0.5037980792338953018	37.3188933117430821085	74	0.0661959424769030802	68	50	15	2	0	19	2	2	36	33	9	31	2	1759	3448	260	5
6.6.1	mac	0	2023-02-15	16:20:58	12345	1	1	experiment	3	experiment_U	1544	1	77	DEV	POS	1						77	50	15	2	0	19	2	2	36	33	9	31	2	1759	3448	260	5
6.6.1	mac	0	2023-02-15	16:20:58	12345	1	1	experiment	3	dispFeedback_U	1000	1	77	DEV	POS	1	78	0.5223338797927905564	40.5310936502855270192	78	0.5078393503808973364	77	50	15	2	0	19	3	2	36	34	9	31	2	1644	3526	266	6
6.6.1	mac	0	2023-02-15	16:20:58	12345	1	1	experiment	3	experiment_U	1577	1	79	DEV	POS	1						79	50	15	2	0	19	3	2	36	34	9	31	2	1644	3526	266	6
6.6.1	mac	0	2023-02-15	16:20:58	12345	1	1	experiment	3	dispFeedback_U	1000	1	79	DEV	POS	1	79	0.5009901417764344167	39.652384922724834837	79	0.4175234591629177761	79	50	15	2	0	19	4	2	36	35	9	31	2	1777	3605	272	6
6.6.1	mac	0	2023-02-15	16:20:58	12345	1	1	experiment	3	experiment_U	3079	1	48	DEV	POS	1						48	50	15	2	0	19	4	2	36	35	9	31	2	1777	3605	272	6
6.6.1	mac	0	2023-02-15	16:20:58	12345	1	1	experiment	3	dispFeedback_U	1000	1	48	DEV	POS	1	75	0.5085337288893555518	38.1157976734721941625	75	0.1497585110249366747	48	50	15	2	0	19	5	2	36	36	9	31	2	1729	3680	278	6
6.6.1	mac	0	2023-02-15	16:20:58	12345	1	1	experiment	4	experiment_noU	2507	1	61	DEV	POS	1						61	45	45	0	0	0	0	3	32	0	6	27	2	1729	3680	278	6
6.6.1	mac	0	2023-02-15	16:20:58	12345	1	1	experiment	4	dispFeedback_noU	1000	1	61	DEV	POS	1	74	0.4963656240092938488	36.8642911247083446824	1	0.6463834172222724384	61	45	45	0	0	0	0	3	32	1	6	27	0	1807	3681	279	1
6.6.1	mac	0	2023-02-15	16:20:58	12345	1	1	experiment	4	experiment_noU	357	1	31	DEV	POS	1						31	45	45	0	0	0	0	3	32	1	6	27	0	1807	3681	279	1
6.6.1	mac	0	2023-02-15	16:20:58	12345	1	1	experiment	4	dispFeedback_noU	1000	1	31	DEV	POS	1	87	0.3461791114689103388	29.9709583904581613467	1	0.8186341484120660539	31	45	45	0	0	0	0	3	32	2	6	27	0	3157	3682	280	1
6.6.1	mac	0	2023-02-15	16:20:58	12345	1	1	experiment	4	experiment_noU	325	1	52	DEV	POS	1						52	45	45	0	0	0	0	3	32	2	6	27	0	3157	3682	280	1
6.6.1	mac	0	2023-02-15	16:20:58	12345	1	1	experiment	4	dispFeedback_noU	1000	1	52	DEV	POS	1	81	0.2659696546278976781	21.5219330102338233246	1	0.2878341193515421281	52	45	45	0	0	0	0	3	32	3	6	27	0	4175	3683	281	1
6.6.1	mac	0	2023-02-15	16:20:58	12345	1	1	experiment	4	experiment_noU	359	1	39	DEV	POS	1						39	45	45	0	0	0	0	3	32	3	6	27	0	4175	3683	281	1
6.6.1	mac	0	2023-02-15	16:20:58	12345	1	1	experiment	4	dispFeedback_noU	1000	1	39	DEV	POS	1	85	0.3145614193624372001	26.6017976182064295188	1	0.5498154618660490156	39	45	45	0	0	0	0	3	32	4	6	27	0	3559	3684	282	1
6.6.1	mac	0	2023-02-15	16:20:58	12345	1	1	experiment	4	experiment_noU	311	1	25	DEV	POS	1						25	45	45	0	0	0	0	3	32	4	6	27	0	3559	3684	282	1
6.6.1	mac	0	2023-02-15	16:20:58	12345	1	1	experiment	4	dispFeedback_noU	1000	1	25	DEV	POS	1	80	0.3761928628601158842	29.9587061574644586415	1	0.8971625708269799215	25	45	45	0	0	0	0	3	32	5	6	27	0	2811	3685	283	1
6.6.1	mac	0	2023-02-15	16:20:58	12345	1	1	experiment	4	experiment_noU	889	1	67	DEV	POS	1						67	45	45	0	0	0	0	3	32	5	6	27	0	2811	3685	283	1
6.6.1	mac	0	2023-02-15	16:20:58	12345	1	1	experiment	4	dispFeedback_noU	1000	1	67	DEV	POS	1	68	0.7673764955218808081	52.0347864315939929725	68	0.6263710878850824448	67	45	45	0	0	0	0	3	32	6	6	27	1	489	3753	288	5
6.6.1	mac	0	2023-02-15	16:20:58	12345	1	1	experiment	4	experiment_U	613	1	71	DEV	POS	1						71	45	45	0	0	0	0	3	32	6	6	27	1	489	3753	288	5
6.6.1	mac	0	2023-02-15	16:20:58	12345	1	1	experiment	4	dispFeedback_U	1000	1	71	DEV	POS	1	73	0.7870513161029848437	57.5713426222041917413	73	0.4610212886382409336	71	45	45	0	0	1	0	3	32	7	6	27	1	413	3826	293	5
6.6.1	mac	0	2023-02-15	16:20:58	12345	1	1	experiment	4	experiment_U	3339	1	19	DEV	POS	1						19	45	45	0	0	1	0	3	32	7	6	27	1	413	3826	293	5
6.6.1	mac	0	2023-02-15	16:20:58	12345	1	1	experiment	4	dispFeedback_U	1000	1	19	DEV	POS	1	75	0.754644298774874156	56.7647960471463761678	1	0.8052776131791243852	19	45	45	1	0	2	0	3	32	8	6	27	1	539	3827	294	1
6.6.1	mac	0	2023-02-15	16:20:58	12345	1	1	experiment	4	experiment_U	340	1	83	DEV	POS	1						83	45	45	1	0	2	0	3	32	8	6	27	1	539	3827	294	1
6.6.1	mac	0	2023-02-15	16:20:58	12345	1	1	experiment	4	dispFeedback_U	1000	1	83	DEV	POS	1	76	0.7052496185192650424	53.404310776359210422	1	0.867118094085510327	83	45	45	2	0	3	0	3	32	9	6	27	1	740	3828	295	1
6.6.1	mac	0	2023-02-15	16:20:58	12345	1	1	experiment	4	experiment_U	3189	1	24	DEV	POS	1						24	45	45	2	0	3	0	3	32	9	6	27	1	740	3828	295	1
6.6.1	mac	0	2023-02-15	16:20:58	12345	1	1	experiment	4	dispFeedback_U	1000	1	24	DEV	POS	1	68	0.7297038318614705865	49.6175134427631334688	68	0.3242411893616060636	24	45	45	3	0	4	0	3	32	10	6	27	1	639	3896	300	5
6.6.1	mac	0	2023-02-15	16:20:58	12345	1	1	experiment	4	experiment_U	1394	1	61	DEV	POS	1						61	45	45	3	0	4	0	3	32	10	6	27	1	639	3896	300	5
6.6.1	mac	0	2023-02-15	16:20:58	12345	1	1	experiment	4	dispFeedback_U	1000	1	61	DEV	POS	1	74	0.7162936047605282797	53.2917613501227691586	74	0.3468088399029357616	61	45	45	4	0	5	0	3	32	11	6	27	0	694	3970	305	5
6.6.1	mac	0	2023-02-15	16:20:58	12345	1	1	experiment	4	experiment_noU	1513	1	56	DEV	POS	1						56	45	45	4	0	5	0	3	32	11	6	27	0	694	3970	305	5
6.6.1	mac	0	2023-02-15	16:20:58	12345	1	1	experiment	4	dispFeedback_noU	1000	1	56	DEV	POS	1	75	0.7485941289133167809	56.4533182328776561576	1	0.9539379556556087936	56	45	45	4	0	5	0	3	32	12	6	27	0	563	3971	306	1
6.6.1	mac	0	2023-02-15	16:20:58	12345	1	1	experiment	4	experiment_noU	3004	1	26	DEV	POS	1						26	45	45	4	0	5	0	3	32	12	6	27	0	563	3971	306	1
6.6.1	mac	0	2023-02-15	16:20:58	12345	1	1	experiment	4	dispFeedback_noU	1000	1	26	DEV	POS	1	68	0.750858234130321045	51.3143554337598999382	1	0.8089743575102124051	26	45	45	4	0	5	0	3	32	13	6	27	0	554	3972	307	1
6.6.1	mac	0	2023-02-15	16:20:58	12345	1	1	experiment	4	experiment_noU	4209	1	1	DEV	POS	1						1	45	45	4	0	5	0	3	32	13	6	27	0	554	3972	307	1
6.6.1	mac	0	2023-02-15	16:20:58	12345	1	1	experiment	4	dispFeedback_noU	1000	1	1	DEV	POS	1	67	0.762263099954638701	51.0529434896725931026	67	0.5458141610831520607	1	45	45	4	0	5	0	3	32	14	6	27	0	509	4039	312	5
6.6.1	mac	0	2023-02-15	16:20:58	12345	1	1	experiment	4	experiment_noU	3575	1	12	DEV	POS	1						12	45	45	4	0	5	0	3	32	14	6	27	0	509	4039	312	5
6.6.1	mac	0	2023-02-15	16:20:58	12345	1	1	experiment	4	dispFeedback_noU	1000	1	12	DEV	POS	1	71	0.7839194939804797757	55.8584838994995038775	71	0.1666843239606088656	12	45	45	4	0	5	0	3	32	15	6	27	0	425	4110	317	5
6.6.1	mac	0	2023-02-15	16:20:58	12345	1	1	experiment	4	experiment_noU	3174	1	22	DEV	POS	1						22	45	45	4	0	5	0	3	32	15	6	27	0	425	4110	317	5
6.6.1	mac	0	2023-02-15	16:20:58	12345	1	1	experiment	4	dispFeedback_noU	1000	1	22	DEV	POS	1	68	0.7584459594329868715	51.6492556299284331089	1	0.9793756597161702437	22	45	45	4	0	5	0	3	32	16	6	27	0	524	4111	318	1
6.6.1	mac	0	2023-02-15	16:20:58	12345	1	1	experiment	4	experiment_noU	2533	1	35	DEV	POS	1						35	45	45	4	0	5	0	3	32	16	6	27	0	524	4111	318	1
6.6.1	mac	0	2023-02-15	16:20:58	12345	1	1	experiment	4	dispFeedback_noU	1000	1	35	DEV	POS	1	73	0.7561630979709913492	55.3300078176313689937	73	0.6563936664388499986	35	45	45	4	0	5	0	3	32	17	6	27	0	533	4184	323	5
6.6.1	mac	0	2023-02-15	16:20:58	12345	1	1	experiment	4	experiment_noU	1263	1	60	DEV	POS	1						60	45	45	4	0	5	0	3	32	17	6	27	0	533	4184	323	5
6.6.1	mac	0	2023-02-15	16:20:58	12345	1	1	experiment	4	dispFeedback_noU	1000	1	60	DEV	POS	1	68	0.7612436888765561349	51.7710559466773716508	68	0.145685553584640276	60	45	45	4	0	5	0	3	32	18	6	27	0	513	4252	328	5
6.6.1	mac	0	2023-02-15	16:20:58	12345	1	1	experiment	4	experiment_noU	4283	1	99	DEV	POS	1						99	45	45	4	0	5	0	3	32	18	6	27	0	513	4252	328	5
6.6.1	mac	0	2023-02-15	16:20:58	12345	1	1	experiment	4	dispFeedback_noU	1000	1	99	DEV	POS	1	67	0.7689157967775847036	51.331348917808035992	67	0.4980381269701845137	99	45	45	4	0	5	0	3	32	19	6	27	0	483	4319	333	5
6.6.1	mac	0	2023-02-15	16:20:58	12345	1	1	experiment	4	experiment_noU	349	1	81	DEV	POS	1						81	45	45	4	0	5	0	3	32	19	6	27	0	483	4319	333	5
6.6.1	mac	0	2023-02-15	16:20:58	12345	1	1	experiment	4	dispFeedback_noU	1000	1	81	DEV	POS	1	69	0.7272491542178161072	50.2319634625901940694	1	0.826303345110803722	81	45	45	4	0	5	0	3	32	20	6	27	0	649	4320	334	1
6.6.1	mac	0	2023-02-15	16:20:58	12345	1	1	experiment	4	experiment_noU	2861	1	24	DEV	POS	1						24	45	45	4	0	5	0	3	32	20	6	27	0	649	4320	334	1
6.6.1	mac	0	2023-02-15	16:20:58	12345	1	1	experiment	4	dispFeedback_noU	1000	1	24	DEV	POS	1	72	0.8140407364854713723	58.7631197255557609083	72	0.3145182408193401558	24	45	45	4	0	5	0	3	32	21	6	27	0	311	4392	339	5
6.6.1	mac	0	2023-02-15	16:20:58	12345	1	1	experiment	4	experiment_noU	920	1	65	DEV	POS	1						65	45	45	4	0	5	0	3	32	21	6	27	0	311	4392	339	5
6.6.1	mac	0	2023-02-15	16:20:58	12345	1	1	experiment	4	dispFeedback_noU	1000	1	65	DEV	POS	1	67	0.7852232836791216419	52.7755162032220681567	67	0.5867566837898354759	65	45	45	4	0	5	0	3	32	22	6	27	0	420	4459	344	5
6.6.1	mac	0	2023-02-15	16:20:58	12345	1	1	experiment	4	experiment_noU	2610	1	32	DEV	POS	1						32	45	45	4	0	5	0	3	32	22	6	27	0	420	4459	344	5
6.6.1	mac	0	2023-02-15	16:20:58	12345	1	1	experiment	4	dispFeedback_noU	1000	1	32	DEV	POS	1	70	0.7748388395419764096	53.8991478478294041565	70	0.2556007148827427744	32	45	45	4	0	5	0	3	32	23	6	27	0	460	4529	349	5
6.6.1	mac	0	2023-02-15	16:20:58	12345	1	1	experiment	4	experiment_noU	487	1	73	DEV	POS	1						73	45	45	4	0	5	0	3	32	23	6	27	0	460	4529	349	5
6.6.1	mac	0	2023-02-15	16:20:58	12345	1	1	experiment	4	dispFeedback_noU	1000	1	73	DEV	POS	1	71	0.7938687882667918583	56.2946400276439646859	71	0.2511357348996996475	73	45	45	4	0	5	0	3	32	24	6	27	0	387	4600	354	5
6.6.1	mac	0	2023-02-15	16:20:58	12345	1	1	experiment	4	experiment_noU	1153	1	60	DEV	POS	1						60	45	45	4	0	5	0	3	32	24	6	27	0	387	4600	354	5
6.6.1	mac	0	2023-02-15	16:20:58	12345	1	1	experiment	4	dispFeedback_noU	1000	1	60	DEV	POS	1	74	0.7896682850158347478	58.4811671402301413991	74	0.1719992601247502528	60	45	45	4	0	5	0	3	32	25	6	27	0	403	4674	359	5
6.6.1	mac	0	2023-02-15	16:20:58	12345	1	1	experiment	4	experiment_noU	530	1	72	DEV	POS	1						72	45	45	4	0	5	0	3	32	25	6	27	0	403	4674	359	5
6.6.1	mac	0	2023-02-15	16:20:58	12345	1	1	experiment	4	dispFeedback_noU	1000	1	72	DEV	POS	1	69	0.7957116406292696897	54.7824891834841309901	69	0.1682455744986062762	72	45	45	4	0	5	0	3	32	26	6	27	0	380	4743	364	5
6.6.1	mac	0	2023-02-15	16:20:58	12345	1	1	experiment	4	experiment_noU	3626	1	10	DEV	POS	1						10	45	45	4	0	5	0	3	32	26	6	27	0	380	4743	364	5
6.6.1	mac	0	2023-02-15	16:20:58	12345	1	1	experiment	4	dispFeedback_noU	1000	1	10	DEV	POS	1	74	0.7967660936538600858	58.8093511127156887142	74	0.0185403211551113806	10	45	45	4	0	5	0	3	32	27	6	27	2	376	4817	369	5
6.6.1	mac	0	2023-02-15	16:20:58	12345	1	1	experiment	4	experiment_U	4215	1	1	DEV	POS	1						1	45	45	4	0	5	0	3	32	27	6	27	2	376	4817	369	5
6.6.1	mac	0	2023-02-15	16:20:58	12345	1	1	experiment	4	dispFeedback_U	1000	1	1	DEV	POS	1	73	0.7607343936885536673	55.5526241982628121718	73	0.5230648295309079376	1	45	45	4	0	5	1	3	32	28	6	27	2	515	4890	374	5
6.6.1	mac	0	2023-02-15	16:20:58	12345	1	1	experiment	4	experiment_U	1836	1	50	DEV	POS	1						50	45	45	4	0	5	1	3	32	28	6	27	2	515	4890	374	5
6.6.1	mac	0	2023-02-15	16:20:58	12345	1	1	experiment	4	dispFeedback_U	1000	1	50	DEV	POS	1	77	0.7428339432213734161	56.8958200792431867399	1	0.832955425799115412	50	45	45	4	1	5	2	3	32	29	6	27	2	586	4891	375	1
6.6.1	mac	0	2023-02-15	16:20:58	12345	1	1	experiment	4	experiment_U	2353	1	40	DEV	POS	1						40	45	45	4	1	5	2	3	32	29	6	27	2	586	4891	375	1
6.6.1	mac	0	2023-02-15	16:20:58	12345	1	1	experiment	4	dispFeedback_U	1000	1	40	DEV	POS	1	72	0.7386004880239964709	52.9755629297971708525	72	0.5735376215478260598	40	45	45	4	2	5	3	3	32	30	6	27	2	603	4963	380	5
6.6.1	mac	0	2023-02-15	16:20:58	12345	1	1	experiment	4	experiment_U	4226	1	99	DEV	POS	1						99	45	45	4	2	5	3	3	32	30	6	27	2	603	4963	380	5
6.6.1	mac	0	2023-02-15	16:20:58	12345	1	1	experiment	4	dispFeedback_U	1000	1	99	DEV	POS	1	66	0.7836589313251960398	51.9285855141018686254	66	0.0450852140889235822	99	45	45	4	2	5	4	3	32	31	6	27	2	426	5029	385	5
6.6.1	mac	0	2023-02-15	16:20:58	12345	1	1	experiment	4	experiment_U	3943	1	6	DEV	POS	1						6	45	45	4	2	5	4	3	32	31	6	27	2	426	5029	385	5
6.6.1	mac	0	2023-02-15	16:20:58	12345	1	1	experiment	4	dispFeedback_U	1000	1	6	DEV	POS	1	67	0.7663516453453532717	51.2246791643562175977	1	0.8678839318146659432	6	45	45	4	2	5	5	3	32	32	6	27	2	493	5030	386	1
6.6.1	mac	0	2023-02-15	16:20:58	12345	1	1	experiment	5	experiment_noU	4280	1	99	IEV	POS	1						99	10	20	0	0	0	0	4	38	0	7	29	2	493	5030	386	1
6.6.1	mac	0	2023-02-15	16:20:58	12345	1	1	experiment	5	dispFeedback_noU	1000	1	99	IEV	POS	1	20	0.8931707858849408099	18.1052321077485913747	20	0.268177267692093102	99	10	20	0	0	0	0	4	38	1	7	29	0	480	5050	387	1
6.6.1	mac	0	2023-02-15	16:20:58	12345	1	1	experiment	5	experiment_noU	4202	1	99	IEV	POS	1						99	10	20	0	0	0	0	4	38	1	7	29	0	480	5050	387	1
6.6.1	mac	0	2023-02-15	16:20:58	12345	1	1	experiment	5	dispFeedback_noU	1000	1	99	IEV	POS	1	13	0.8952125210503925068	11.4386334257429123085	13	0.0888442690691082365	99	10	20	0	0	0	0	4	38	2	7	29	0	402	5063	388	1
6.6.1	mac	0	2023-02-15	16:20:58	12345	1	1	experiment	5	experiment_noU	4497	1	93	IEV	POS	1						93	10	20	0	0	0	0	4	38	2	7	29	0	402	5063	388	1
6.6.1	mac	0	2023-02-15	16:20:58	12345	1	1	experiment	5	dispFeedback_noU	1000	1	93	IEV	POS	1	21	0.8953298743315437624	18.5768825356388767034	21	0.0885244962034105604	93	10	20	0	0	0	0	4	38	3	7	29	0	397	5084	389	1
6.6.1	mac	0	2023-02-15	16:20:58	12345	1	1	experiment	5	experiment_noU	2426	1	35	IEV	POS	1						35	10	20	0	0	0	0	4	38	3	7	29	0	397	5084	389	1
6.6.1	mac	0	2023-02-15	16:20:58	12345	1	1	experiment	5	dispFeedback_noU	1000	1	35	IEV	POS	1	18	0.8946267829605183408	16.0325662563266142513	18	0.1049132130818705155	35	10	20	0	0	0	0	4	38	4	7	29	0	426	5102	390	1
6.6.1	mac	0	2023-02-15	16:20:58	12345	1	1	experiment	5	experiment_noU	1896	1	47	IEV	POS	1						47	10	20	0	0	0	0	4	38	4	7	29	0	426	5102	390	1
6.6.1	mac	0	2023-02-15	16:20:58	12345	1	1	experiment	5	dispFeedback_noU	1000	1	47	IEV	POS	1	17	0.8927019958278612499	15.516423494903881064	17	0.5914289531278025258	47	10	20	0	0	0	0	4	38	5	7	29	0	496	5119	391	1
6.6.1	mac	0	2023-02-15	16:20:58	12345	1	1	experiment	5	experiment_noU	2474	1	36	IEV	POS	1						36	10	20	0	0	0	0	4	38	5	7	29	0	496	5119	391	1
6.6.1	mac	0	2023-02-15	16:20:58	12345	1	1	experiment	5	dispFeedback_noU	1000	1	36	IEV	POS	1	17	0.8918397548527274843	14.7890627762211970264	17	0.7797567618032350545	36	10	20	0	0	0	0	4	38	6	7	29	0	524	5136	392	1
6.6.1	mac	0	2023-02-15	16:20:58	12345	1	1	experiment	5	experiment_noU	3125	1	23	IEV	POS	1						23	10	20	0	0	0	0	4	38	6	7	29	0	524	5136	392	1
6.6.1	mac	0	2023-02-15	16:20:58	12345	1	1	experiment	5	dispFeedback_noU	1000	1	23	IEV	POS	1	16	0.8918079675033683262	13.9032937644773770813	1	0.8944675912834860743	23	10	20	0	0	0	0	4	38	7	7	29	1	525	5137	393	1
6.6.1	mac	0	2023-02-15	16:20:58	12345	1	1	experiment	5	experiment_U	599	1	40	IEV	POS	1						40	10	20	0	0	0	0	4	38	7	7	29	1	525	5137	393	1
6.6.1	mac	0	2023-02-15	16:20:58	12345	1	1	experiment	5	dispFeedback_U	1000	1	40	IEV	POS	1	124	0.4080725085525567231	50.6481977802818406076	124	0.0091629868860270327	40	10	20	1	0	1	0	4	38	8	7	29	1	3849	5261	401	8
6.6.1	mac	0	2023-02-15	16:20:58	12345	1	1	experiment	5	experiment_U	973	1	32	IEV	POS	1						32	10	20	1	0	1	0	4	38	8	7	29	1	3849	5261	401	8
6.6.1	mac	0	2023-02-15	16:20:58	12345	1	1	experiment	5	dispFeedback_U	1000	1	32	IEV	POS	1	122	0.413476890050727075	50.4254221963373581161	122	0.3015649023702286491	32	10	20	2	0	2	0	4	38	9	7	29	1	3823	5383	409	8
6.6.1	mac	0	2023-02-15	16:20:58	12345	1	1	experiment	5	experiment_U	3429	1	82	IEV	POS	1						82	10	20	2	0	2	0	4	38	9	7	29	1	3823	5383	409	8
6.6.1	mac	0	2023-02-15	16:20:58	12345	1	1	experiment	5	dispFeedback_U	1000	1	82	IEV	POS	1	122	0.4226371643472714434	51.7318317245597540932	1	0.5103047798644529953	82	10	20	3	0	3	0	4	38	10	7	29	1	3779	5384	410	1
6.6.1	mac	0	2023-02-15	16:20:58	12345	1	1	experiment	5	experiment_U	3497	1	84	IEV	POS	1						84	10	20	3	0	3	0	4	38	10	7	29	1	3779	5384	410	1
6.6.1	mac	0	2023-02-15	16:20:58	12345	1	1	experiment	5	dispFeedback_U	1000	1	84	IEV	POS	1	131	0.3877740110014959996	50.6838955076109840547	1	0.7870552553299478005	84	10	20	4	0	4	0	4	38	11	7	29	0	3947	5385	411	1
6.6.1	mac	0	2023-02-15	16:20:58	12345	1	1	experiment	5	experiment_noU	4444	1	69	IEV	POS	1						69	10	20	4	0	4	0	4	38	11	7	29	0	3947	5385	411	1
6.6.1	mac	0	2023-02-15	16:20:58	12345	1	1	experiment	5	dispFeedback_noU	1000	1	69	IEV	POS	1	156	0.347445768805202837	54.3421787584724214071	156	0.2318812236729732856	69	10	20	4	0	4	0	4	38	12	7	29	0	4144	5541	421	10
6.6.1	mac	0	2023-02-15	16:20:58	12345	1	1	experiment	5	experiment_noU	457	1	51	IEV	POS	1						51	10	20	4	0	4	0	4	38	12	7	29	0	4144	5541	421	10
6.6.1	mac	0	2023-02-15	16:20:58	12345	1	1	experiment	5	dispFeedback_noU	1000	1	51	IEV	POS	1	168	0.3246959797300736361	54.6993052348244219729	1	0.7257441814815961401	51	10	20	4	0	4	0	4	38	13	7	29	0	4257	5542	422	1
6.6.1	mac	0	2023-02-15	16:20:58	12345	1	1	experiment	5	experiment_noU	3813	1	80	IEV	POS	1						80	10	20	4	0	4	0	4	38	13	7	29	0	4257	5542	422	1
6.6.1	mac	0	2023-02-15	16:20:58	12345	1	1	experiment	5	dispFeedback_noU	1000	1	80	IEV	POS	1	146	0.3639366505174611577	53.0888204086647448321	1	0.9172265291952589328	80	10	20	4	0	4	0	4	38	14	7	29	0	4063	5543	423	1
6.6.1	mac	0	2023-02-15	16:20:58	12345	1	1	experiment	5	experiment_noU	2042	1	14	IEV	POS	1						14	10	20	4	0	4	0	4	38	14	7	29	0	4063	5543	423	1
6.6.1	mac	0	2023-02-15	16:20:58	12345	1	1	experiment	5	dispFeedback_noU	1000	1	14	IEV	POS	1	141	0.3784991718550364537	53.3307602889846137373	1	0.6793348089976549709	14	10	20	4	0	4	0	4	38	15	7	29	0	3992	5544	424	1
6.6.1	mac	0	2023-02-15	16:20:58	12345	1	1	experiment	5	experiment_noU	2615	1	9	IEV	POS	1						9	10	20	4	0	4	0	4	38	15	7	29	0	3992	5544	424	1
6.6.1	mac	0	2023-02-15	16:20:58	12345	1	1	experiment	5	dispFeedback_noU	1000	1	9	IEV	POS	1	178	0.3131502477363787285	55.664113675318290575	1	0.4977325523499708249	9	10	20	4	0	4	0	4	38	16	7	29	0	4315	5545	425	1
6.6.1	mac	0	2023-02-15	16:20:58	12345	1	1	experiment	5	experiment_noU	1867	1	7	IEV	POS	1						7	10	20	4	0	4	0	4	38	16	7	29	0	4315	5545	425	1
6.6.1	mac	0	2023-02-15	16:20:58	12345	1	1	experiment	5	dispFeedback_noU	1000	1	7	IEV	POS	1	100	0.4877848939303980336	49.0201986508075577831	1	0.543025986185070586	7	10	20	4	0	4	0	4	38	17	7	29	0	3467	5546	426	1
6.6.1	mac	0	2023-02-15	16:20:58	12345	1	1	experiment	5	experiment_noU	2798	1	84	IEV	POS	1						84	10	20	4	0	4	0	4	38	17	7	29	0	3467	5546	426	1
6.6.1	mac	0	2023-02-15	16:20:58	12345	1	1	experiment	5	dispFeedback_noU	1000	1	84	IEV	POS	1	89	0.5331818190778645494	47.4079289636773921757	1	0.9060995720573933321	84	10	20	4	0	4	0	4	38	18	7	29	0	3248	5547	427	1
6.6.1	mac	0	2023-02-15	16:20:58	12345	1	1	experiment	5	experiment_noU	477	1	19	IEV	POS	1						19	10	20	4	0	4	0	4	38	18	7	29	0	3248	5547	427	1
6.6.1	mac	0	2023-02-15	16:20:58	12345	1	1	experiment	5	dispFeedback_noU	1000	1	19	IEV	POS	1	67	0.6461649321598034179	43.1172965130170808834	1	0.724894025531805597	19	10	20	4	0	4	0	4	38	19	7	29	0	2677	5548	428	1
6.6.1	mac	0	2023-02-15	16:20:58	12345	1	1	experiment	5	experiment_noU	1944	1	46	IEV	POS	1						46	10	20	4	0	4	0	4	38	19	7	29	0	2677	5548	428	1
6.6.1	mac	0	2023-02-15	16:20:58	12345	1	1	experiment	5	dispFeedback_noU	1000	1	46	IEV	POS	1	14	0.8927615408911157013	12.8266687273202109054	14	0.254922050343575457	46	10	20	4	0	4	0	4	38	20	7	29	0	494	5562	429	1
6.6.1	mac	0	2023-02-15	16:20:58	12345	1	1	experiment	5	experiment_noU	808	1	89	IEV	POS	1						89	10	20	4	0	4	0	4	38	20	7	29	0	494	5562	429	1
6.6.1	mac	0	2023-02-15	16:20:58	12345	1	1	experiment	5	dispFeedback_noU	1000	1	89	IEV	POS	1	34	0.8235328040586360476	28.0811542376232985418	34	0.5926966410113257977	89	10	20	4	0	4	0	4	38	21	7	29	0	1508	5596	432	3
6.6.1	mac	0	2023-02-15	16:20:58	12345	1	1	experiment	5	experiment_noU	2886	1	53	IEV	POS	1						53	10	20	4	0	4	0	4	38	21	7	29	0	1508	5596	432	3
6.6.1	mac	0	2023-02-15	16:20:58	12345	1	1	experiment	5	dispFeedback_noU	1000	1	53	IEV	POS	1	32	0.7901187500880295644	24.9438874715711698116	1	0.8364108728329676667	53	10	20	4	0	4	0	4	38	22	7	29	0	1786	5597	433	1
6.6.1	mac	0	2023-02-15	16:20:58	12345	1	1	experiment	5	experiment_noU	738	1	99	IEV	POS	1						99	10	20	4	0	4	0	4	38	22	7	29	0	1786	5597	433	1
6.6.1	mac	0	2023-02-15	16:20:58	12345	1	1	experiment	5	dispFeedback_noU	1000	1	99	IEV	POS	1	38	0.7693165968301753921	29.2148764850870641396	38	0.3064559037579353551	99	10	20	4	0	4	0	4	38	23	7	29	0	1938	5635	436	3
6.6.1	mac	0	2023-02-15	16:20:58	12345	1	1	experiment	5	experiment_noU	754	1	4	IEV	POS	1						4	10	20	4	0	4	0	4	38	23	7	29	0	1938	5635	436	3
6.6.1	mac	0	2023-02-15	16:20:58	12345	1	1	experiment	5	dispFeedback_noU	1000	1	4	IEV	POS	1	42	0.7289058872337393913	30.4146186061840282377	1	0.7715418410421214235	4	10	20	4	0	4	0	4	38	24	7	29	0	2204	5636	437	1
6.6.1	mac	0	2023-02-15	16:20:58	12345	1	1	experiment	5	experiment_noU	387	1	38	IEV	POS	1						38	10	20	4	0	4	0	4	38	24	7	29	0	2204	5636	437	1
6.6.1	mac	0	2023-02-15	16:20:58	12345	1	1	experiment	5	dispFeedback_noU	1000	1	38	IEV	POS	1	106	0.4731770626310577987	50.1384435102548096097	106	0.3440956124905719671	38	10	20	4	0	4	0	4	38	25	7	29	0	3537	5742	445	8
6.6.1	mac	0	2023-02-15	16:20:58	12345	1	1	experiment	5	experiment_noU	530	1	64	IEV	POS	1						64	10	20	4	0	4	0	4	38	25	7	29	0	3537	5742	445	8
6.6.1	mac	0	2023-02-15	16:20:58	12345	1	1	experiment	5	dispFeedback_noU	1000	1	64	IEV	POS	1	309	0.1891638275945009551	58.4473054987540123761	1	0.2175539518281710272	64	10	20	4	0	4	0	4	38	26	7	29	0	4980	5743	446	1
6.6.1	mac	0	2023-02-15	16:20:58	12345	1	1	experiment	5	experiment_noU	3755	1	68	IEV	POS	1						68	10	20	4	0	4	0	4	38	26	7	29	0	4980	5743	446	1
6.6.1	mac	0	2023-02-15	16:20:58	12345	1	1	experiment	5	dispFeedback_noU	1000	1	68	IEV	POS	1	100	0.5006944283287304565	49.9340440625749693027	100	0.1281033216808231956	68	10	20	4	0	4	0	4	38	27	7	29	0	3405	5843	453	7
6.6.1	mac	0	2023-02-15	16:20:58	12345	1	1	experiment	5	experiment_noU	452	1	42	IEV	POS	1						42	10	20	4	0	4	0	4	38	27	7	29	0	3405	5843	453	7
6.6.1	mac	0	2023-02-15	16:20:58	12345	1	1	experiment	5	dispFeedback_noU	1000	1	42	IEV	POS	1	118	0.4178467510951731079	49.4075045757665449742	1	0.9979361884756796641	42	10	20	4	0	4	0	4	38	28	7	29	0	3802	5844	454	1
6.6.1	mac	0	2023-02-15	16:20:58	12345	1	1	experiment	5	experiment_noU	3008	1	94	IEV	POS	1						94	10	20	4	0	4	0	4	38	28	7	29	0	3802	5844	454	1
6.6.1	mac	0	2023-02-15	16:20:58	12345	1	1	experiment	5	dispFeedback_noU	1000	1	94	IEV	POS	1	136	0.385503870753468314	52.3186830417610053701	1	0.9272589548321578112	94	10	20	4	0	4	0	4	38	29	7	29	2	3958	5845	455	1
6.6.1	mac	0	2023-02-15	16:20:58	12345	1	1	experiment	5	experiment_U	407	1	46	IEV	POS	1						46	10	20	4	0	4	0	4	38	29	7	29	2	3958	5845	455	1
6.6.1	mac	0	2023-02-15	16:20:58	12345	1	1	experiment	5	dispFeedback_U	1000	1	46	IEV	POS	1	134	0.3857101705222032439	51.5396779142875871571	1	0.8608661854781364253	46	10	20	4	0	4	1	4	38	30	7	29	2	3957	5846	456	1
6.6.1	mac	0	2023-02-15	16:20:58	12345	1	1	experiment	5	experiment_U	1077	1	31	IEV	POS	1						31	10	20	4	0	4	1	4	38	30	7	29	2	3957	5846	456	1
6.6.1	mac	0	2023-02-15	16:20:58	12345	1	1	experiment	5	dispFeedback_U	1000	1	31	IEV	POS	1	126	0.4022605739687878379	50.8845845358647537182	1	0.4277933769458423519	31	10	20	4	0	4	2	4	38	31	7	29	2	3877	5847	457	1
6.6.1	mac	0	2023-02-15	16:20:58	12345	1	1	experiment	5	experiment_U	2569	1	1	IEV	POS	1						1	10	20	4	0	4	2	4	38	31	7	29	2	3877	5847	457	1
6.6.1	mac	0	2023-02-15	16:20:58	12345	1	1	experiment	5	dispFeedback_U	1000	1	1	IEV	POS	1	131	0.4039202081230659491	52.8370206201806169588	1	0.5777339061204656012	1	10	20	4	0	4	3	4	38	32	7	29	2	3869	5848	458	1
6.6.1	mac	0	2023-02-15	16:20:58	12345	1	1	experiment	5	experiment_U	3632	1	62	IEV	POS	1						62	10	20	4	0	4	3	4	38	32	7	29	2	3869	5848	458	1
6.6.1	mac	0	2023-02-15	16:20:58	12345	1	1	experiment	5	dispFeedback_U	1000	1	62	IEV	POS	1	78	0.5871071263182944255	45.7978960160271668656	78	0.3751185683941278826	62	10	20	4	1	4	4	4	38	33	7	29	2	2982	5926	464	6
6.6.1	mac	0	2023-02-15	16:20:58	12345	1	1	experiment	5	experiment_U	733	1	19	IEV	POS	1						19	10	20	4	1	4	4	4	38	33	7	29	2	2982	5926	464	6
6.6.1	mac	0	2023-02-15	16:20:58	12345	1	1	experiment	5	dispFeedback_U	1000	1	19	IEV	POS	1	70	0.5968270688900171317	41.699121720662269297	70	0.0334984508886696855	19	10	20	4	2	4	5	4	38	34	7	29	2	2933	5996	469	5
6.6.1	mac	0	2023-02-15	16:20:58	12345	1	1	experiment	5	experiment_U	3629	1	62	IEV	POS	1						62	10	20	4	2	4	5	4	38	34	7	29	2	2933	5996	469	5
6.6.1	mac	0	2023-02-15	16:20:58	12345	1	1	experiment	5	dispFeedback_U	1000	1	62	IEV	POS	1	77	0.5877044409890153087	45.1786932790830704221	77	0.3221960590039836259	62	10	20	4	3	4	6	4	38	35	7	29	2	2979	6073	475	6
6.6.1	mac	0	2023-02-15	16:20:58	12345	1	1	experiment	5	experiment_U	3195	1	71	IEV	POS	1						71	10	20	4	3	4	6	4	38	35	7	29	2	2979	6073	475	6
6.6.1	mac	0	2023-02-15	16:20:58	12345	1	1	experiment	5	dispFeedback_U	1000	1	71	IEV	POS	1	70	0.5845155279305522811	40.6734344342474543055	70	0.3925032979791293064	71	10	20	4	4	4	7	4	38	36	7	29	0	2995	6143	480	5
6.6.1	mac	0	2023-02-15	16:20:58	12345	1	1	experiment	5	experiment_noU	4185	1	61	IEV	POS	1						61	10	20	4	4	4	7	4	38	36	7	29	0	2995	6143	480	5
6.6.1	mac	0	2023-02-15	16:20:58	12345	1	1	experiment	5	dispFeedback_noU	1000	1	61	IEV	POS	1	98	0.484031280239410111	47.2519030716227845801	98	0.2389175191612256388	61	10	20	4	4	4	7	4	38	37	7	29	0	3485	6241	487	7
6.6.1	mac	0	2023-02-15	16:20:58	12345	1	1	experiment	5	experiment_noU	368	1	55	IEV	POS	1						55	10	20	4	4	4	7	4	38	37	7	29	0	3485	6241	487	7
6.6.1	mac	0	2023-02-15	16:20:58	12345	1	1	experiment	5	dispFeedback_noU	1000	1	55	IEV	POS	1	183	0.3026852775078621716	55.3335706832471032612	1	0.4823676514165400886	55	10	20	4	4	4	7	4	38	38	7	29	0	4368	6242	488	1
6.6.1	mac	0	2023-02-15	16:20:58	12345	1	1	experiment	6	experiment_noU	3567	1	69	CEVR	POS	1						69	35	10	0	0	0	0	5	37	0	10	30	0	4368	6242	488	1
6.6.1	mac	0	2023-02-15	16:20:58	12345	1	1	experiment	6	dispFeedback_noU	1000	1	69	CEVR	POS	1	83	0.4269699967029343401	35.2921200131882599749	83	0.4079379118997459308	69	35	10	0	0	0	0	5	37	1	10	30	0	3267	6325	494	6
6.6.1	mac	0	2023-02-15	16:20:58	12345	1	1	experiment	6	experiment_noU	3374	1	72	CEVR	POS	1						72	35	10	0	0	0	0	5	37	1	10	30	0	3267	6325	494	6
6.6.1	mac	0	2023-02-15	16:20:58	12345	1	1	experiment	6	dispFeedback_noU	1000	1	72	CEVR	POS	1	90	0.421001300390117017	37.8420026007802263734	1	0.4286125147316168227	72	35	10	0	0	0	0	5	37	2	10	30	0	3224	6326	495	1
6.6.1	mac	0	2023-02-15	16:20:58	12345	1	1	experiment	6	experiment_noU	1301	1	12	CEVR	POS	1						12	35	10	0	0	0	0	5	37	2	10	30	0	3224	6326	495	1
6.6.1	mac	0	2023-02-15	16:20:58	12345	1	1	experiment	6	dispFeedback_noU	1000	1	12	CEVR	POS	1	93	0.411241664020323916	38.2337249920609707488	1	0.8423171974351436608	12	35	10	0	0	0	0	5	37	3	10	30	0	3151	6327	496	1
6.6.1	mac	0	2023-02-15	16:20:58	12345	1	1	experiment	6	experiment_noU	400	1	36	CEVR	POS	1						36	35	10	0	0	0	0	5	37	3	10	30	0	3151	6327	496	1
6.6.1	mac	0	2023-02-15	16:20:58	12345	1	1	experiment	6	dispFeedback_noU	1000	1	36	CEVR	POS	1	77	0.454385964912280671	35.1824561403508724311	77	0.3600921883154875047	36	35	10	0	0	0	0	5	37	4	10	30	0	3450	6404	502	6
6.6.1	mac	0	2023-02-15	16:20:58	12345	1	1	experiment	6	experiment_noU	2621	1	90	CEVR	POS	1						90	35	10	0	0	0	0	5	37	4	10	30	0	3450	6404	502	6
6.6.1	mac	0	2023-02-15	16:20:58	12345	1	1	experiment	6	dispFeedback_noU	1000	1	90	CEVR	POS	1	89	0.4421304199385456268	39.210652099692737238	1	0.7490112119701251014	90	35	10	0	0	0	0	5	37	5	10	30	0	3371	6405	503	1
6.6.1	mac	0	2023-02-15	16:20:58	12345	1	1	experiment	6	experiment_noU	338	1	43	CEVR	POS	1						43	35	10	0	0	0	0	5	37	5	10	30	0	3371	6405	503	1
6.6.1	mac	0	2023-02-15	16:20:58	12345	1	1	experiment	6	dispFeedback_noU	1000	1	43	CEVR	POS	1	74	0.505464480874316946	37.5054644808743162798	74	0.201020632684468431	43	35	10	0	0	0	0	5	37	6	10	30	0	3738	6479	508	5
6.6.1	mac	0	2023-02-15	16:20:58	12345	1	1	experiment	6	experiment_noU	2658	1	88	CEVR	POS	1						88	35	10	0	0	0	0	5	37	6	10	30	0	3738	6479	508	5
6.6.1	mac	0	2023-02-15	16:20:58	12345	1	1	experiment	6	dispFeedback_noU	1000	1	88	CEVR	POS	1	83	0.4328208556149732433	36.13435828877005207	1	0.5584541497655338693	88	35	10	0	0	0	0	5	37	7	10	30	0	3308	6480	509	1
6.6.1	mac	0	2023-02-15	16:20:58	12345	1	1	experiment	6	experiment_noU	422	1	39	CEVR	POS	1						39	35	10	0	0	0	0	5	37	7	10	30	0	3308	6480	509	1
6.6.1	mac	0	2023-02-15	16:20:58	12345	1	1	experiment	6	dispFeedback_noU	1000	1	39	CEVR	POS	1	76	0.4835698282300224249	36.5164301717699757432	76	0.2743825610434595941	39	35	10	0	0	0	0	5	37	8	10	30	0	3622	6556	515	6
6.6.1	mac	0	2023-02-15	16:20:58	12345	1	1	experiment	6	experiment_noU	2003	1	6	CEVR	POS	1						6	35	10	0	0	0	0	5	37	8	10	30	0	3622	6556	515	6
6.6.1	mac	0	2023-02-15	16:20:58	12345	1	1	experiment	6	dispFeedback_noU	1000	1	6	CEVR	POS	1	82	0.4714233709501274294	38.8856934838005159349	82	0.4367581257682195961	6	35	10	0	0	0	0	5	37	9	10	30	0	3553	6638	521	6
6.6.1	mac	0	2023-02-15	16:20:58	12345	1	1	experiment	6	experiment_noU	352	1	51	CEVR	POS	1						51	35	10	0	0	0	0	5	37	9	10	30	0	3553	6638	521	6
6.6.1	mac	0	2023-02-15	16:20:58	12345	1	1	experiment	6	dispFeedback_noU	1000	1	51	CEVR	POS	1	65	0.602886405959031646	39.4115456238361261398	1	0.8284203025578568136	51	35	10	0	0	0	0	5	37	10	10	30	1	4152	6639	522	1
6.6.1	mac	0	2023-02-15	16:20:58	12345	1	1	experiment	6	experiment_U	2930	1	86	CEVR	POS	1						86	35	10	0	0	0	0	5	37	10	10	30	1	4152	6639	522	1
6.6.1	mac	0	2023-02-15	16:20:58	12345	1	1	experiment	6	dispFeedback_U	1000	1	86	CEVR	POS	1	77	0.4592198581560283932	35.1631205673758842067	1	0.5171201470115036614	86	35	10	0	0	1	0	5	37	11	10	30	1	3480	6640	523	1
6.6.1	mac	0	2023-02-15	16:20:58	12345	1	1	experiment	6	experiment_U	2571	1	93	CEVR	POS	1						93	35	10	0	0	1	0	5	37	11	10	30	1	3480	6640	523	1
6.6.1	mac	0	2023-02-15	16:20:58	12345	1	1	experiment	6	dispFeedback_U	1000	1	93	CEVR	POS	1	78	0.4577589254153411336	35.6267232237539772655	78	0.1499647249351173384	93	35	10	0	0	2	0	5	37	12	10	30	1	3471	6718	529	6
6.6.1	mac	0	2023-02-15	16:20:58	12345	1	1	experiment	6	experiment_U	3075	1	81	CEVR	POS	1						81	35	10	0	0	2	0	5	37	12	10	30	1	3471	6718	529	6
6.6.1	mac	0	2023-02-15	16:20:58	12345	1	1	experiment	6	dispFeedback_U	1000	1	81	CEVR	POS	1	84	0.4427350427350427164	37	84	0.2428353268752888039	81	35	10	0	0	3	0	5	37	13	10	30	1	3375	6802	535	6
6.6.1	mac	0	2023-02-15	16:20:58	12345	1	1	experiment	6	experiment_U	1509	1	12	CEVR	POS	1						12	35	10	0	0	3	0	5	37	13	10	30	1	3375	6802	535	6
6.6.1	mac	0	2023-02-15	16:20:58	12345	1	1	experiment	6	dispFeedback_U	1000	1	12	CEVR	POS	1	88	0.4403264195851750995	38.7613056783406975114	88	0.1690465237873249038	12	35	10	0	0	4	0	5	37	14	10	30	1	3359	6890	541	6
6.6.1	mac	0	2023-02-15	16:20:58	12345	1	1	experiment	6	experiment_U	2647	1	89	CEVR	POS	1						89	35	10	0	0	4	0	5	37	14	10	30	1	3359	6890	541	6
6.6.1	mac	0	2023-02-15	16:20:58	12345	1	1	experiment	6	dispFeedback_U	1000	1	89	CEVR	POS	1	89	0.4385370809346427201	39.1926854046732131565	89	0.2419584810831487409	89	35	10	0	0	5	0	5	37	15	10	30	1	3347	6979	548	7
6.6.1	mac	0	2023-02-15	16:20:58	12345	1	1	experiment	6	experiment_U	1245	1	18	CEVR	POS	1						18	35	10	0	0	5	0	5	37	15	10	30	1	3347	6979	548	7
6.6.1	mac	0	2023-02-15	16:20:58	12345	1	1	experiment	6	dispFeedback_U	1000	1	18	CEVR	POS	1	83	0.4457831325301204739	37	1	0.4519951251456502672	18	35	10	0	0	6	0	5	37	16	10	30	1	3395	6980	549	1
6.6.1	mac	0	2023-02-15	16:20:58	12345	1	1	experiment	6	experiment_U	809	1	27	CEVR	POS	1						27	35	10	0	0	6	0	5	37	16	10	30	1	3395	6980	549	1
6.6.1	mac	0	2023-02-15	16:20:58	12345	1	1	experiment	6	dispFeedback_U	1000	1	27	CEVR	POS	1	86	0.4479418886198547334	38.3438256658595690851	86	0.0942905138000590948	27	35	10	0	0	7	0	5	37	17	10	30	1	3409	7066	555	6
6.6.1	mac	0	2023-02-15	16:20:58	12345	1	1	experiment	6	experiment_U	4520	1	52	CEVR	POS	1						52	35	10	0	0	7	0	5	37	17	10	30	1	3409	7066	555	6
6.6.1	mac	0	2023-02-15	16:20:58	12345	1	1	experiment	6	dispFeedback_U	1000	1	52	CEVR	POS	1	80	0.4419795221843003108	35.2320819112628029757	80	0.1385313691893898247	52	35	10	0	0	8	0	5	37	18	10	30	1	3370	7146	561	6
6.6.1	mac	0	2023-02-15	16:20:58	12345	1	1	experiment	6	experiment_U	2097	1	100	CEVR	POS	1						100	35	10	0	0	8	0	5	37	18	10	30	1	3370	7146	561	6
6.6.1	mac	0	2023-02-15	16:20:58	12345	1	1	experiment	6	dispFeedback_U	1000	1	100	CEVR	POS	1	86	0.4385370809346427201	37.8770741618692809993	1	0.4495521279632933576	100	35	10	0	0	9	0	5	37	19	10	30	1	3347	7147	562	1
6.6.1	mac	0	2023-02-15	16:20:58	12345	1	1	experiment	6	experiment_U	1868	1	4	CEVR	POS	1						4	35	10	0	0	9	0	5	37	19	10	30	1	3347	7147	562	1
6.6.1	mac	0	2023-02-15	16:20:58	12345	1	1	experiment	6	dispFeedback_U	1000	1	4	CEVR	POS	1	87	0.4342723004694836186	37.8685446009389750088	1	0.5132975411865156046	4	35	10	0	0	10	0	5	37	20	10	30	1	3318	7148	563	1
6.6.1	mac	0	2023-02-15	16:20:58	12345	1	1	experiment	6	experiment_U	352	1	49	CEVR	POS	1						49	35	10	0	0	10	0	5	37	20	10	30	1	3318	7148	563	1
6.6.1	mac	0	2023-02-15	16:20:58	12345	1	1	experiment	6	dispFeedback_U	1000	1	49	CEVR	POS	1	63	0.5760676156583630636	36.423932384341640045	63	0.3208085778916274777	49	35	10	0	0	11	0	5	37	21	10	30	1	4052	7211	568	5
6.6.1	mac	0	2023-02-15	16:20:58	12345	1	1	experiment	6	experiment_U	1088	1	20	CEVR	POS	1						20	35	10	0	0	11	0	5	37	21	10	30	1	4052	7211	568	5
6.6.1	mac	0	2023-02-15	16:20:58	12345	1	1	experiment	6	dispFeedback_U	1000	1	20	CEVR	POS	1	85	0.4372045914922350063	37.0000000000000071054	1	0.683011003928960081	20	35	10	0	0	12	0	5	37	22	10	30	1	3338	7212	569	1
6.6.1	mac	0	2023-02-15	16:20:58	12345	1	1	experiment	6	experiment_U	402	1	47	CEVR	POS	1						47	35	10	0	0	12	0	5	37	22	10	30	1	3338	7212	569	1
6.6.1	mac	0	2023-02-15	16:20:58	12345	1	1	experiment	6	dispFeedback_U	1000	1	47	CEVR	POS	1	68	0.5635335073977372211	38.1270670147954788831	1	0.674956538871618994	47	35	10	0	0	13	0	5	37	23	10	30	1	4002	7213	570	1
6.6.1	mac	0	2023-02-15	16:20:58	12345	1	1	experiment	6	experiment_U	545	1	33	CEVR	POS	1						33	35	10	0	0	13	0	5	37	23	10	30	1	4002	7213	570	1
6.6.1	mac	0	2023-02-15	16:20:58	12345	1	1	experiment	6	dispFeedback_U	1000	1	33	CEVR	POS	1	83	0.4535901926444833587	37.4535901926444765309	83	0.3049230997694942769	33	35	10	0	0	14	0	5	37	24	10	30	1	3445	7296	576	6
6.6.1	mac	0	2023-02-15	16:20:58	12345	1	1	experiment	6	experiment_U	1337	1	15	CEVR	POS	1						15	35	10	0	0	14	0	5	37	24	10	30	1	3445	7296	576	6
6.6.1	mac	0	2023-02-15	16:20:58	12345	1	1	experiment	6	dispFeedback_U	1000	1	15	CEVR	POS	1	86	0.4370570367870401651	37.4370570367870385553	1	0.9380647255894878356	15	35	10	0	0	15	0	5	37	25	10	30	1	3337	7297	577	1
6.6.1	mac	0	2023-02-15	16:20:58	12345	1	1	experiment	6	experiment_U	3731	1	66	CEVR	POS	1						66	35	10	0	0	15	0	5	37	25	10	30	1	3337	7297	577	1
6.6.1	mac	0	2023-02-15	16:20:58	12345	1	1	experiment	6	dispFeedback_U	1000	1	66	CEVR	POS	1	90	0.4289499834382246024	38.7157999337528977435	1	0.884230687721686115	66	35	10	0	0	16	0	5	37	26	10	30	1	3281	7298	578	1
6.6.1	mac	0	2023-02-15	16:20:58	12345	1	1	experiment	6	experiment_U	380	1	51	CEVR	POS	1						51	35	10	0	0	16	0	5	37	26	10	30	1	3281	7298	578	1
6.6.1	mac	0	2023-02-15	16:20:58	12345	1	1	experiment	6	dispFeedback_U	1000	1	51	CEVR	POS	1	65	0.6108490566037736436	39.4433962264150892452	65	0.0499458450474650206	51	35	10	0	0	17	0	5	37	27	10	30	1	4180	7363	583	5
6.6.1	mac	0	2023-02-15	16:20:58	12345	1	1	experiment	6	experiment_U	4124	1	75	CEVR	POS	1						75	35	10	0	0	17	0	5	37	27	10	30	1	4180	7363	583	5
6.6.1	mac	0	2023-02-15	16:20:58	12345	1	1	experiment	6	dispFeedback_U	1000	1	75	CEVR	POS	1	65	0.5951286764705883137	38.7853860294117680496	1	0.82323755715583391	75	35	10	0	0	18	0	5	37	28	10	30	1	4124	7364	584	1
6.6.1	mac	0	2023-02-15	16:20:58	12345	1	1	experiment	6	experiment_U	373	1	56	CEVR	POS	1						56	35	10	0	0	18	0	5	37	28	10	30	1	4124	7364	584	1
6.6.1	mac	0	2023-02-15	16:20:58	12345	1	1	experiment	6	dispFeedback_U	1000	1	56	CEVR	POS	1	49	0.6899307405434202956	33.5503462972828927491	1	0.9399126265058090901	56	35	10	0	0	19	0	5	37	29	10	30	1	4423	7365	585	1
6.6.1	mac	0	2023-02-15	16:20:58	12345	1	1	experiment	6	experiment_U	2085	1	11	CEVR	POS	1						11	35	10	0	0	19	0	5	37	29	10	30	1	4423	7365	585	1
6.6.1	mac	0	2023-02-15	16:20:58	12345	1	1	experiment	6	dispFeedback_U	1000	1	11	CEVR	POS	1	65	0.5362318840579710644	34.8550724637681170748	1	0.6570613613950697651	11	35	10	0	0	20	0	5	37	30	10	30	2	3885	7366	586	1
6.6.1	mac	0	2023-02-15	16:20:58	12345	1	1	experiment	6	experiment_U	1983	1	74	CEVR	POS	1						74	35	10	0	0	20	0	5	37	30	10	30	2	3885	7366	586	1
6.6.1	mac	0	2023-02-15	16:20:58	12345	1	1	experiment	6	dispFeedback_U	1000	1	74	CEVR	POS	1	129	0.2965422486833066418	38.1861689947332294537	1	0.5808317539237513039	74	35	10	0	0	20	1	5	37	31	10	30	2	1933	7367	587	1
6.6.1	mac	0	2023-02-15	16:20:58	12345	1	1	experiment	6	experiment_U	4143	1	65	CEVR	POS	1						65	35	10	0	0	20	1	5	37	31	10	30	2	1933	7367	587	1
6.6.1	mac	0	2023-02-15	16:20:58	12345	1	1	experiment	6	dispFeedback_U	1000	1	65	CEVR	POS	1	73	0.487391795257809568	35.5378246142265723506	73	0.1409982028745576377	65	35	10	0	1	20	2	5	37	32	10	30	2	3643	7440	592	5
6.6.1	mac	0	2023-02-15	16:20:58	12345	1	1	experiment	6	experiment_U	1911	1	6	CEVR	POS	1						6	35	10	0	1	20	2	5	37	32	10	30	2	3643	7440	592	5
6.6.1	mac	0	2023-02-15	16:20:58	12345	1	1	experiment	6	dispFeedback_U	1000	1	6	CEVR	POS	1	84	0.456146530468474809	38.3684395914054263699	1	0.8126020361233041722	6	35	10	0	1	20	3	5	37	33	10	30	2	3461	7441	593	1
6.6.1	mac	0	2023-02-15	16:20:58	12345	1	1	experiment	6	experiment_U	1257	1	22	CEVR	POS	1						22	35	10	0	1	20	3	5	37	33	10	30	2	3461	7441	593	1
6.6.1	mac	0	2023-02-15	16:20:58	12345	1	1	experiment	6	dispFeedback_U	1000	1	22	CEVR	POS	1	75	0.480876346082435957	36.038247307835128197	1	0.854237921502030928	22	35	10	0	2	20	4	5	37	34	10	30	2	3607	7442	594	1
6.6.1	mac	0	2023-02-15	16:20:58	12345	1	1	experiment	6	experiment_U	1716	1	16	CEVR	POS	1						16	35	10	0	2	20	4	5	37	34	10	30	2	3607	7442	594	1
6.6.1	mac	0	2023-02-15	16:20:58	12345	1	1	experiment	6	dispFeedback_U	1000	1	16	CEVR	POS	1	74	0.5110497237569060491	38.0220994475138027724	74	0.1965768179382609282	16	35	10	0	3	20	5	5	37	35	10	30	2	3766	7516	599	5
6.6.1	mac	0	2023-02-15	16:20:58	12345	1	1	experiment	6	experiment_U	4077	1	68	CEVR	POS	1						68	35	10	0	3	20	5	5	37	35	10	30	2	3766	7516	599	5
6.6.1	mac	0	2023-02-15	16:20:58	12345	1	1	experiment	6	dispFeedback_U	1000	1	68	CEVR	POS	1	69	0.5033035367275553451	34.4834823163622132824	1	0.9288686611524011871	68	35	10	0	4	20	6	5	37	36	10	30	0	3727	7517	600	1
6.6.1	mac	0	2023-02-15	16:20:58	12345	1	1	experiment	6	experiment_noU	2232	1	4	CEVR	POS	1						4	35	10	0	4	20	6	5	37	36	10	30	0	3727	7517	600	1
6.6.1	mac	0	2023-02-15	16:20:58	12345	1	1	experiment	6	dispFeedback_noU	1000	1	4	CEVR	POS	1	71	0.4946524064171123336	35.021390374331552664	1	0.9820595639716040992	4	35	10	0	4	20	6	5	37	37	10	30	0	3682	7518	601	1
6.6.1	mac	0	2023-02-15	16:20:58	12345	1	1	experiment	7	experiment_noU	2971	1	88	IEV	POS	1						88	15	5	0	0	0	0	6	33	0	5	26	0	3682	7518	601	1
6.6.1	mac	0	2023-02-15	16:20:58	12345	1	1	experiment	7	dispFeedback_noU	1000	1	88	IEV	POS	1	105	0.4556247827502114545	47.6780846517247383076	1	0.6960341568794180533	88	15	5	0	0	0	0	6	33	1	5	26	0	3621	7519	602	1
6.6.1	mac	0	2023-02-15	16:20:58	12345	1	1	experiment	7	experiment_noU	1379	1	21	IEV	POS	1						21	15	5	0	0	0	0	6	33	1	5	26	0	3621	7519	602	1
6.6.1	mac	0	2023-02-15	16:20:58	12345	1	1	experiment	7	dispFeedback_noU	1000	1	21	IEV	POS	1	116	0.4435047733025712091	51.3528562167469289079	116	0.1684039922357546126	21	15	5	0	0	0	0	6	33	2	5	26	0	3679	7635	610	8
6.6.1	mac	0	2023-02-15	16:20:58	12345	1	1	experiment	7	experiment_noU	393	1	59	IEV	POS	1						59	15	5	0	0	0	0	6	33	2	5	26	0	3679	7635	610	8
6.6.1	mac	0	2023-02-15	16:20:58	12345	1	1	experiment	7	dispFeedback_noU	1000	1	59	IEV	POS	1	220	0.2592779076940655014	56.967232904132565352	220	0.2480680645089755054	59	15	5	0	0	0	0	6	33	3	5	26	0	4593	7855	620	10
6.6.1	mac	0	2023-02-15	16:20:58	12345	1	1	experiment	7	experiment_noU	441	1	53	IEV	POS	1						53	15	5	0	0	0	0	6	33	3	5	26	0	4593	7855	620	10
6.6.1	mac	0	2023-02-15	16:20:58	12345	1	1	experiment	7	dispFeedback_noU	1000	1	53	IEV	POS	1	176	0.3080059644086333703	54.2604945017007196384	176	0.2596392457512298746	53	15	5	0	0	0	0	6	33	4	5	26	0	4341	8031	630	10
6.6.1	mac	0	2023-02-15	16:20:58	12345	1	1	experiment	7	experiment_noU	358	1	56	IEV	POS	1						56	15	5	0	0	0	0	6	33	4	5	26	0	4341	8031	630	10
6.6.1	mac	0	2023-02-15	16:20:58	12345	1	1	experiment	7	dispFeedback_noU	1000	1	56	IEV	POS	1	186	0.294844303733155455	54.9586017020960468926	186	0.0942605813253346303	56	15	5	0	0	0	0	6	33	5	5	26	1	4408	8217	640	10
6.6.1	mac	0	2023-02-15	16:20:58	12345	1	1	experiment	7	experiment_U	646	1	50	IEV	POS	1						50	15	5	0	0	0	0	6	33	5	5	26	1	4408	8217	640	10
6.6.1	mac	0	2023-02-15	16:20:58	12345	1	1	experiment	7	dispFeedback_U	1000	1	50	IEV	POS	1	183	0.2971912916123107817	54.2958716809144590343	183	0.1422000429924111797	50	15	5	0	0	1	0	6	33	6	5	26	1	4396	8400	650	10
6.6.1	mac	0	2023-02-15	16:20:58	12345	1	1	experiment	7	experiment_U	491	1	54	IEV	POS	1						54	15	5	0	0	1	0	6	33	6	5	26	1	4396	8400	650	10
6.6.1	mac	0	2023-02-15	16:20:58	12345	1	1	experiment	7	dispFeedback_U	1000	1	54	IEV	POS	1	197	0.2884140923284526647	56.8736449179011600563	1	0.2982490366087874878	54	15	5	0	0	2	0	6	33	7	5	26	1	4441	8401	651	1
6.6.1	mac	0	2023-02-15	16:20:58	12345	1	1	experiment	7	experiment_U	1414	1	36	IEV	POS	1						36	15	5	0	0	2	0	6	33	7	5	26	1	4441	8401	651	1
6.6.1	mac	0	2023-02-15	16:20:58	12345	1	1	experiment	7	dispFeedback_U	1000	1	36	IEV	POS	1	201	0.2839536946423869002	56.9725853543104463483	1	0.6706033844199504879	36	15	5	0	0	3	0	6	33	8	5	26	1	4464	8402	652	1
6.6.1	mac	0	2023-02-15	16:20:58	12345	1	1	experiment	7	experiment_U	4237	1	79	IEV	POS	1						79	15	5	0	0	3	0	6	33	8	5	26	1	4464	8402	652	1
6.6.1	mac	0	2023-02-15	16:20:58	12345	1	1	experiment	7	dispFeedback_U	1000	1	79	IEV	POS	1	192	0.289191612461501435	55.4102456531753375657	1	0.4279527227459365424	79	15	5	0	0	4	0	6	33	9	5	26	1	4437	8403	653	1
6.6.1	mac	0	2023-02-15	16:20:58	12345	1	1	experiment	7	experiment_U	5010	1	61	IEV	POS	1						61	15	5	0	0	4	0	6	33	9	5	26	1	4437	8403	653	1
6.6.1	mac	0	2023-02-15	16:20:58	12345	1	1	experiment	7	dispFeedback_U	1000	1	61	IEV	POS	1	172	0.3141418071264104883	54.0668193846056581719	1	0.6064997850001090374	61	15	5	0	0	5	0	6	33	10	5	26	1	4310	8404	654	1
6.6.1	mac	0	2023-02-15	16:20:58	12345	1	1	experiment	7	experiment_U	3895	1	81	IEV	POS	1						81	15	5	0	0	5	0	6	33	10	5	26	1	4310	8404	654	1
6.6.1	mac	0	2023-02-15	16:20:58	12345	1	1	experiment	7	dispFeedback_U	1000	1	81	IEV	POS	1	161	0.3371386261509806692	54.3201343448080891108	1	0.5678340172320217594	81	15	5	0	0	6	0	6	33	11	5	26	1	4195	8405	655	1
6.6.1	mac	0	2023-02-15	16:20:58	12345	1	1	experiment	7	experiment_U	2875	1	3	IEV	POS	1						3	15	5	0	0	6	0	6	33	11	5	26	1	4195	8405	655	1
6.6.1	mac	0	2023-02-15	16:20:58	12345	1	1	experiment	7	dispFeedback_U	1000	1	3	IEV	POS	1	176	0.3211027435342224123	56.4115427595742104927	176	0.0208959535278603337	3	15	5	0	0	7	0	6	33	12	5	26	1	4275	8581	665	10
6.6.1	mac	0	2023-02-15	16:20:58	12345	1	1	experiment	7	experiment_U	358	1	56	IEV	POS	1						56	15	5	0	0	7	0	6	33	12	5	26	1	4275	8581	665	10
6.6.1	mac	0	2023-02-15	16:20:58	12345	1	1	experiment	7	dispFeedback_U	1000	1	56	IEV	POS	1	184	0.294844303733155455	54.3689130946297396463	1	0.8998585769207818608	56	15	5	0	0	8	0	6	33	13	5	26	1	4408	8582	666	1
6.6.1	mac	0	2023-02-15	16:20:58	12345	1	1	experiment	7	experiment_U	535	1	37	IEV	POS	1						37	15	5	0	0	8	0	6	33	13	5	26	1	4408	8582	666	1
6.6.1	mac	0	2023-02-15	16:20:58	12345	1	1	experiment	7	dispFeedback_U	1000	1	37	IEV	POS	1	113	0.4526988272632204158	50.9859810222745508668	113	0.0798461451381086706	37	15	5	1	0	9	0	6	33	14	5	26	1	3635	8695	674	8
6.6.1	mac	0	2023-02-15	16:20:58	12345	1	1	experiment	7	experiment_U	2175	1	3	IEV	POS	1						3	15	5	1	0	9	0	6	33	14	5	26	1	3635	8695	674	8
6.6.1	mac	0	2023-02-15	16:20:58	12345	1	1	experiment	7	dispFeedback_U	1000	1	3	IEV	POS	1	105	0.4652383164284623618	49.076291557102244667	1	0.5381403766894108376	3	15	5	2	0	10	0	6	33	15	5	26	1	3575	8696	675	1
6.6.1	mac	0	2023-02-15	16:20:58	12345	1	1	experiment	7	experiment_U	2214	1	15	IEV	POS	1						15	15	5	2	0	10	0	6	33	15	5	26	1	3575	8696	675	1
6.6.1	mac	0	2023-02-15	16:20:58	12345	1	1	experiment	7	dispFeedback_U	1000	1	15	IEV	POS	1	167	0.3333149920537574751	55.7715017757481561489	1	0.7853960829752953954	15	15	5	2	0	11	0	6	33	16	5	26	1	4214	8697	676	1
6.6.1	mac	0	2023-02-15	16:20:58	12345	1	1	experiment	7	experiment_U	2349	1	11	IEV	POS	1						11	15	5	2	0	11	0	6	33	16	5	26	1	4214	8697	676	1
6.6.1	mac	0	2023-02-15	16:20:58	12345	1	1	experiment	7	dispFeedback_U	1000	1	11	IEV	POS	1	153	0.346432541901604274	52.9878779817792704421	1	0.6204214411835236032	11	15	5	2	0	12	0	6	33	17	5	26	1	4149	8698	677	1
6.6.1	mac	0	2023-02-15	16:20:58	12345	1	1	experiment	7	experiment_U	2220	1	13	IEV	POS	1						13	15	5	2	0	12	0	6	33	17	5	26	1	4149	8698	677	1
6.6.1	mac	0	2023-02-15	16:20:58	12345	1	1	experiment	7	dispFeedback_U	1000	1	13	IEV	POS	1	157	0.3523171676184151391	55.2466390234454891583	1	0.6874562699085697837	13	15	5	2	0	13	0	6	33	18	5	26	1	4120	8699	678	1
6.6.1	mac	0	2023-02-15	16:20:58	12345	1	1	experiment	7	experiment_U	3873	1	70	IEV	POS	1						70	15	5	2	0	13	0	6	33	18	5	26	1	4120	8699	678	1
6.6.1	mac	0	2023-02-15	16:20:58	12345	1	1	experiment	7	dispFeedback_U	1000	1	70	IEV	POS	1	108	0.4552067827367689556	49.0636154501910368708	1	0.4571206235459820966	70	15	5	3	0	14	0	6	33	19	5	26	1	3623	8700	679	1
6.6.1	mac	0	2023-02-15	16:20:58	12345	1	1	experiment	7	experiment_U	1510	1	22	IEV	POS	1						22	15	5	3	0	14	0	6	33	19	5	26	1	3623	8700	679	1
6.6.1	mac	0	2023-02-15	16:20:58	12345	1	1	experiment	7	dispFeedback_U	1000	1	22	IEV	POS	1	128	0.4057881872870433004	51.9588655833194721367	128	0.1636945605659146374	22	15	5	3	0	15	0	6	33	20	5	26	0	3860	8828	688	9
6.6.1	mac	0	2023-02-15	16:20:58	12345	1	1	experiment	7	experiment_noU	3127	1	87	IEV	POS	1						87	15	5	3	0	15	0	6	33	20	5	26	0	3860	8828	688	9
6.6.1	mac	0	2023-02-15	16:20:58	12345	1	1	experiment	7	dispFeedback_noU	1000	1	87	IEV	POS	1	118	0.4334816925741180049	51.3097716091689051154	118	0.2426772558229689514	87	15	5	3	0	15	0	6	33	21	5	26	0	3727	8946	696	8
6.6.1	mac	0	2023-02-15	16:20:58	12345	1	1	experiment	7	experiment_noU	4649	1	57	IEV	POS	1						57	15	5	3	0	15	0	6	33	21	5	26	0	3727	8946	696	8
6.6.1	mac	0	2023-02-15	16:20:58	12345	1	1	experiment	7	dispFeedback_noU	1000	1	57	IEV	POS	1	119	0.4288915150752926619	51.0609408416926555674	119	0.2550984298007326068	57	15	5	3	0	15	0	6	33	22	5	26	0	3749	9065	704	8
6.6.1	mac	0	2023-02-15	16:20:58	12345	1	1	experiment	7	experiment_noU	3852	1	72	IEV	POS	1						72	15	5	3	0	15	0	6	33	22	5	26	0	3749	9065	704	8
6.6.1	mac	0	2023-02-15	16:20:58	12345	1	1	experiment	7	dispFeedback_noU	1000	1	72	IEV	POS	1	116	0.4387008617452161641	51.1025081542029866455	116	0.1030704207027029334	72	15	5	3	0	15	0	6	33	23	5	26	0	3702	9181	712	8
6.6.1	mac	0	2023-02-15	16:20:58	12345	1	1	experiment	7	experiment_noU	2831	1	91	IEV	POS	1						91	15	5	3	0	15	0	6	33	23	5	26	0	3702	9181	712	8
6.6.1	mac	0	2023-02-15	16:20:58	12345	1	1	experiment	7	dispFeedback_noU	1000	1	91	IEV	POS	1	110	0.4535348013898181652	50.0451354891434334604	1	0.7598251401818881812	91	15	5	3	0	15	0	6	33	24	5	26	0	3631	9182	713	1
6.6.1	mac	0	2023-02-15	16:20:58	12345	1	1	experiment	7	experiment_noU	380	1	42	IEV	POS	1						42	15	5	3	0	15	0	6	33	24	5	26	0	3631	9182	713	1
6.6.1	mac	0	2023-02-15	16:20:58	12345	1	1	experiment	7	dispFeedback_noU	1000	1	42	IEV	POS	1	119	0.4328555986202180517	51.3344541410352945832	1	0.6861429954148230426	42	15	5	3	0	15	0	6	33	25	5	26	0	3730	9183	714	1
6.6.1	mac	0	2023-02-15	16:20:58	12345	1	1	experiment	7	experiment_noU	3004	1	94	IEV	POS	1						94	15	5	3	0	15	0	6	33	25	5	26	0	3730	9183	714	1
6.6.1	mac	0	2023-02-15	16:20:58	12345	1	1	experiment	7	dispFeedback_noU	1000	1	94	IEV	POS	1	134	0.3863291623614715786	51.9019864904603167588	134	0.0420346323032944058	94	15	5	3	0	15	0	6	33	26	5	26	2	3954	9317	723	9
6.6.1	mac	0	2023-02-15	16:20:58	12345	1	1	experiment	7	experiment_U	1296	1	29	IEV	POS	1						29	15	5	3	0	15	0	6	33	26	5	26	2	3954	9317	723	9
6.6.1	mac	0	2023-02-15	16:20:58	12345	1	1	experiment	7	dispFeedback_U	1000	1	29	IEV	POS	1	136	0.3776763435628766596	51.4703836958528739842	1	0.7023130477644300429	29	15	5	3	1	15	1	6	33	27	5	26	2	3996	9318	724	1
6.6.1	mac	0	2023-02-15	16:20:58	12345	1	1	experiment	7	experiment_U	4585	1	66	IEV	POS	1						66	15	5	3	1	15	1	6	33	27	5	26	2	3996	9318	724	1
6.6.1	mac	0	2023-02-15	16:20:58	12345	1	1	experiment	7	dispFeedback_U	1000	1	66	IEV	POS	1	157	0.3492710212017539062	54.9838528642890622677	1	0.741986909355499491	66	15	5	3	2	15	2	6	33	28	5	26	2	4135	9319	725	1
6.6.1	mac	0	2023-02-15	16:20:58	12345	1	1	experiment	7	experiment_U	3360	1	91	IEV	POS	1						91	15	5	3	2	15	2	6	33	28	5	26	2	4135	9319	725	1
6.6.1	mac	0	2023-02-15	16:20:58	12345	1	1	experiment	7	dispFeedback_U	1000	1	91	IEV	POS	1	152	0.3442054875535903169	52.377107991838244061	1	0.8907046098938921075	91	15	5	3	3	15	3	6	33	29	5	26	2	4160	9320	726	1
6.6.1	mac	0	2023-02-15	16:20:58	12345	1	1	experiment	7	experiment_U	4743	1	63	IEV	POS	1						63	15	5	3	3	15	3	6	33	29	5	26	2	4160	9320	726	1
6.6.1	mac	0	2023-02-15	16:20:58	12345	1	1	experiment	7	dispFeedback_U	1000	1	63	IEV	POS	1	157	0.3476484832512203305	54.6835273166065221062	1	0.8359477333342534289	63	15	5	3	4	15	4	6	33	30	5	26	0	4143	9321	727	1
6.6.1	mac	0	2023-02-15	16:20:58	12345	1	1	experiment	7	experiment_noU	536	1	46	IEV	POS	1						46	15	5	3	4	15	4	6	33	30	5	26	0	4143	9321	727	1
6.6.1	mac	0	2023-02-15	16:20:58	12345	1	1	experiment	7	dispFeedback_noU	1000	1	46	IEV	POS	1	153	0.3592399287944670894	55.0467547095975859861	153	0.2293093521681868752	46	15	5	3	4	15	4	6	33	31	5	26	0	4086	9474	737	10
6.6.1	mac	0	2023-02-15	16:20:58	12345	1	1	experiment	7	experiment_noU	3026	1	1	IEV	POS	1						1	15	5	3	4	15	4	6	33	31	5	26	0	4086	9474	737	10
6.6.1	mac	0	2023-02-15	16:20:58	12345	1	1	experiment	7	dispFeedback_noU	1000	1	1	IEV	POS	1	173	0.3109713846221038858	53.8563723275124033307	1	0.696923258410981683	1	15	5	3	4	15	4	6	33	32	5	26	0	4326	9475	738	1
6.6.1	mac	0	2023-02-15	16:20:58	12345	1	1	experiment	7	experiment_noU	3847	1	82	IEV	POS	1						82	15	5	3	4	15	4	6	33	32	5	26	0	4326	9475	738	1
6.6.1	mac	0	2023-02-15	16:20:58	12345	1	1	experiment	7	dispFeedback_noU	1000	1	82	IEV	POS	1	159	0.3367357110141988019	53.6591749394707662191	1	0.4731603542978782828	82	15	5	3	4	15	4	6	33	33	5	26	0	4197	9476	739	1
6.6.1	mac	0	2023-02-15	16:20:58	12345	1	1	experiment	8	experiment_noU	2651	1	8	DEV	POS	1						8	25	1	0	0	0	0	7	42	0	11	24	0	4197	9476	739	1
6.6.1	mac	0	2023-02-15	16:20:58	12345	1	1	experiment	8	dispFeedback_noU	1000	1	8	DEV	POS	1	86	0.2552144226707940278	21.9928302317091848295	1	0.7753685791453739373	8	25	1	0	0	0	0	7	42	1	11	24	0	4301	9477	740	1
6.6.1	mac	0	2023-02-15	16:20:58	12345	1	1	experiment	8	experiment_noU	3423	1	87	DEV	POS	1						87	25	1	0	0	0	0	7	42	1	11	24	0	4301	9477	740	1
6.6.1	mac	0	2023-02-15	16:20:58	12345	1	1	experiment	8	dispFeedback_noU	1000	1	87	DEV	POS	1	88	0.2784418947318373916	24.3920653862671272805	1	0.3369128814285883844	87	25	1	0	0	0	0	7	42	2	11	24	0	4023	9478	741	1
6.6.1	mac	0	2023-02-15	16:20:58	12345	1	1	experiment	8	experiment_noU	3302	1	90	DEV	POS	1						90	25	1	0	0	0	0	7	42	2	11	24	0	4023	9478	741	1
6.6.1	mac	0	2023-02-15	16:20:58	12345	1	1	experiment	8	dispFeedback_noU	1000	1	90	DEV	POS	1	87	0.2760990714354752962	23.9276314249571804282	87	0.1754106579291193346	90	25	1	0	0	0	0	7	42	3	11	24	0	4052	9565	747	6
6.6.1	mac	0	2023-02-15	16:20:58	12345	1	1	experiment	8	experiment_noU	751	1	39	DEV	POS	1						39	25	1	0	0	0	0	7	42	3	11	24	0	4052	9565	747	6
6.6.1	mac	0	2023-02-15	16:20:58	12345	1	1	experiment	8	dispFeedback_noU	1000	1	39	DEV	POS	1	88	0.2841945650302867277	25.136547543813982486	88	0.0411929143688625002	39	25	1	0	0	0	0	7	42	4	11	24	0	3951	9653	753	6
6.6.1	mac	0	2023-02-15	16:20:58	12345	1	1	experiment	8	experiment_noU	1824	1	3	DEV	POS	1						3	25	1	0	0	0	0	7	42	4	11	24	0	3951	9653	753	6
6.6.1	mac	0	2023-02-15	16:20:58	12345	1	1	experiment	8	dispFeedback_noU	1000	1	3	DEV	POS	1	82	0.3407434803004856239	27.8553257147325936671	1	0.4268368446330625399	3	25	1	0	0	0	0	7	42	5	11	24	0	3224	9654	754	1
6.6.1	mac	0	2023-02-15	16:20:58	12345	1	1	experiment	8	experiment_noU	1700	1	77	DEV	POS	1						77	25	1	0	0	0	0	7	42	5	11	24	0	3224	9654	754	1
6.6.1	mac	0	2023-02-15	16:20:58	12345	1	1	experiment	8	dispFeedback_noU	1000	1	77	DEV	POS	1	77	0.4974385094251039252	38.4223793437127341122	1	0.6891776713750272787	77	25	1	0	0	0	0	7	42	6	11	24	0	1800	9655	755	1
6.6.1	mac	0	2023-02-15	16:20:58	12345	1	1	experiment	8	experiment_noU	336	1	60	DEV	POS	1						60	25	1	0	0	0	0	7	42	6	11	24	0	1800	9655	755	1
6.6.1	mac	0	2023-02-15	16:20:58	12345	1	1	experiment	8	dispFeedback_noU	1000	1	60	DEV	POS	1	84	0.2291128127594351249	19.1831967539336076811	1	0.9362710858546828829	60	25	1	0	0	0	0	7	42	7	11	24	0	4586	9656	756	1
6.6.1	mac	0	2023-02-15	16:20:58	12345	1	1	experiment	8	experiment_noU	2944	1	93	DEV	POS	1						93	25	1	0	0	0	0	7	42	7	11	24	0	4586	9656	756	1
6.6.1	mac	0	2023-02-15	16:20:58	12345	1	1	experiment	8	dispFeedback_noU	1000	1	93	DEV	POS	1	82	0.292603014715792753	24.0565410788902696027	82	0.1976201045787008836	93	25	1	0	0	0	0	7	42	8	11	24	0	3844	9738	762	6
6.6.1	mac	0	2023-02-15	16:20:58	12345	1	1	experiment	8	experiment_noU	2984	1	91	DEV	POS	1						91	25	1	0	0	0	0	7	42	8	11	24	0	3844	9738	762	6
6.6.1	mac	0	2023-02-15	16:20:58	12345	1	1	experiment	8	dispFeedback_noU	1000	1	91	DEV	POS	1	84	0.2972617353615083502	24.9945716469839922524	1	0.7512063148317873473	91	25	1	0	0	0	0	7	42	9	11	24	0	3784	9739	763	1
6.6.1	mac	0	2023-02-15	16:20:58	12345	1	1	experiment	8	experiment_noU	384	1	48	DEV	POS	1						48	25	1	0	0	0	0	7	42	9	11	24	0	3784	9739	763	1
6.6.1	mac	0	2023-02-15	16:20:58	12345	1	1	experiment	8	dispFeedback_noU	1000	1	48	DEV	POS	1	90	0.2775550924054078772	24.8759467384982038141	1	0.8220327992043534593	48	25	1	0	0	0	0	7	42	10	11	24	0	4034	9740	764	1
6.6.1	mac	0	2023-02-15	16:20:58	12345	1	1	experiment	8	experiment_noU	4127	1	72	DEV	POS	1						72	25	1	0	0	0	0	7	42	10	11	24	0	4034	9740	764	1
6.6.1	mac	0	2023-02-15	16:20:58	12345	1	1	experiment	8	dispFeedback_noU	1000	1	72	DEV	POS	1	85	0.2821271189644541932	23.8409043612140116863	85	0.1183628971032711918	72	25	1	0	0	0	0	7	42	11	11	24	1	3977	9825	770	6
6.6.1	mac	0	2023-02-15	16:20:58	12345	1	1	experiment	8	experiment_U	633	1	45	DEV	POS	1						45	25	1	0	0	0	0	7	42	11	11	24	1	3977	9825	770	6
6.6.1	mac	0	2023-02-15	16:20:58	12345	1	1	experiment	8	dispFeedback_U	1000	1	45	DEV	POS	1	81	0.2694659744145512237	21.7815347367852787386	1	0.9563348439886083519	45	25	1	0	0	1	0	7	42	12	11	24	1	4133	9826	771	1
6.6.1	mac	0	2023-02-15	16:20:58	12345	1	1	experiment	8	experiment_U	2381	1	12	DEV	POS	1						12	25	1	0	0	1	0	7	42	12	11	24	1	4133	9826	771	1
6.6.1	mac	0	2023-02-15	16:20:58	12345	1	1	experiment	8	dispFeedback_U	1000	1	12	DEV	POS	1	80	0.2612411929330282212	20.9079087820261939612	1	0.4650175793713465233	12	25	1	0	0	2	0	7	42	13	11	24	1	4231	9827	772	1
6.6.1	mac	0	2023-02-15	16:20:58	12345	1	1	experiment	8	experiment_U	380	1	63	DEV	POS	1						63	25	1	0	0	2	0	7	42	13	11	24	1	4231	9827	772	1
6.6.1	mac	0	2023-02-15	16:20:58	12345	1	1	experiment	8	dispFeedback_U	1000	1	63	DEV	POS	1	88	0.2096628127914054174	18.4689044474542072294	88	0.1727991274494675711	63	25	1	0	0	3	0	7	42	14	11	24	1	4780	9915	778	6
6.6.1	mac	0	2023-02-15	16:20:58	12345	1	1	experiment	8	experiment_U	330	1	38	DEV	POS	1						38	25	1	0	0	3	0	7	42	14	11	24	1	4780	9915	778	6
6.6.1	mac	0	2023-02-15	16:20:58	12345	1	1	experiment	8	dispFeedback_U	1000	1	38	DEV	POS	1	79	0.3206401183206264438	25.4526258997935244111	1	0.8433624459065874879	38	25	1	0	0	4	0	7	42	15	11	24	1	3480	9916	779	1
6.6.1	mac	0	2023-02-15	16:20:58	12345	1	1	experiment	8	experiment_U	267	1	20	DEV	POS	1						20	25	1	0	0	4	0	7	42	15	11	24	1	3480	9916	779	1
6.6.1	mac	0	2023-02-15	16:20:58	12345	1	1	experiment	8	dispFeedback_U	1000	1	20	DEV	POS	1	83	0.4053291358625685792	33.5458682924767259692	1	0.8414934693932285548	20	25	1	1	0	5	0	7	42	16	11	24	1	2517	9917	780	1
6.6.1	mac	0	2023-02-15	16:20:58	12345	1	1	experiment	8	experiment_U	240	1	41	DEV	POS	1						41	25	1	1	0	5	0	7	42	16	11	24	1	2517	9917	780	1
6.6.1	mac	0	2023-02-15	16:20:58	12345	1	1	experiment	8	dispFeedback_U	1000	1	41	DEV	POS	1	80	0.3160209464189990269	25.1309923383574194133	1	0.4117818340686573153	41	25	1	1	0	6	0	7	42	17	11	24	1	3540	9918	781	1
6.6.1	mac	0	2023-02-15	16:20:58	12345	1	1	experiment	8	experiment_U	308	1	41	DEV	POS	1						41	25	1	1	0	6	0	7	42	17	11	24	1	3540	9918	781	1
6.6.1	mac	0	2023-02-15	16:20:58	12345	1	1	experiment	8	dispFeedback_U	1000	1	41	DEV	POS	1	80	0.310801064291038931	24.7653406561102933381	1	0.4228241521452609786	41	25	1	1	0	7	0	7	42	18	11	24	1	3608	9919	782	1
6.6.1	mac	0	2023-02-15	16:20:58	12345	1	1	experiment	8	experiment_U	918	1	66	DEV	POS	1						66	25	1	1	0	7	0	7	42	18	11	24	1	3608	9919	782	1
6.6.1	mac	0	2023-02-15	16:20:58	12345	1	1	experiment	8	dispFeedback_U	1000	1	66	DEV	POS	1	66	0.7727746384286138248	50.7175717145187334722	66	0.2529435475014484291	66	25	1	1	0	8	0	7	42	19	11	24	1	468	9985	787	5
6.6.1	mac	0	2023-02-15	16:20:58	12345	1	1	experiment	8	experiment_U	303	1	15	DEV	POS	1						15	25	1	1	0	8	0	7	42	19	11	24	1	468	9985	787	5
6.6.1	mac	0	2023-02-15	16:20:58	12345	1	1	experiment	8	dispFeedback_U	1000	1	15	DEV	POS	1	77	0.4293421536650596781	33.0909757605511956058	77	0.3971634913229298292	15	25	1	2	0	9	0	7	42	20	11	24	1	2303	10062	793	6
6.6.1	mac	0	2023-02-15	16:20:58	12345	1	1	experiment	8	experiment_U	306	1	31	DEV	POS	1						31	25	1	2	0	9	0	7	42	20	11	24	1	2303	10062	793	6
6.6.1	mac	0	2023-02-15	16:20:58	12345	1	1	experiment	8	dispFeedback_U	1000	1	31	DEV	POS	1	82	0.3503838435649827554	28.8868145132147056131	1	0.3800232655787894598	31	25	1	2	0	10	0	7	42	21	11	24	1	3106	10063	794	1
6.6.1	mac	0	2023-02-15	16:20:58	12345	1	1	experiment	8	experiment_U	242	1	96	DEV	POS	1						96	25	1	2	0	10	0	7	42	21	11	24	1	3106	10063	794	1
6.6.1	mac	0	2023-02-15	16:20:58	12345	1	1	experiment	8	dispFeedback_U	1000	1	96	DEV	POS	1	72	0.5856644011812155437	42.1496487148034475467	72	0.0508661738249627376	96	25	1	2	0	11	0	7	42	22	11	24	1	1292	10135	799	5
6.6.1	mac	0	2023-02-15	16:20:58	12345	1	1	experiment	8	experiment_U	311	1	30	DEV	POS	1						30	25	1	2	0	11	0	7	42	22	11	24	1	1292	10135	799	5
6.6.1	mac	0	2023-02-15	16:20:58	12345	1	1	experiment	8	dispFeedback_U	1000	1	30	DEV	POS	1	85	0.3541479652208372464	30.2174632049082774188	85	0.0890198410695930559	30	25	1	2	0	12	0	7	42	23	11	24	1	3061	10220	805	6
6.6.1	mac	0	2023-02-15	16:20:58	12345	1	1	experiment	8	experiment_U	281	1	99	DEV	POS	1						99	25	1	2	0	12	0	7	42	23	11	24	1	3061	10220	805	6
6.6.1	mac	0	2023-02-15	16:20:58	12345	1	1	experiment	8	dispFeedback_U	1000	1	99	DEV	POS	1	78	0.5504085387762795989	42.8632783296867003742	78	0.3178019892232962773	99	25	1	2	0	13	0	7	42	24	11	24	1	1481	10298	811	6
6.6.1	mac	0	2023-02-15	16:20:58	12345	1	1	experiment	8	experiment_U	267	1	26	DEV	POS	1						26	25	1	2	0	13	0	7	42	24	11	24	1	1481	10298	811	6
6.6.1	mac	0	2023-02-15	16:20:58	12345	1	1	experiment	8	dispFeedback_U	1000	1	26	DEV	POS	1	86	0.3756378485828478775	32.1747476723229368645	86	0.0778823571926640229	26	25	1	3	0	14	0	7	42	25	11	24	1	2817	10384	817	6
6.6.1	mac	0	2023-02-15	16:20:58	12345	1	1	experiment	8	experiment_U	286	1	90	DEV	POS	1						90	25	1	3	0	14	0	7	42	25	11	24	1	2817	10384	817	6
6.6.1	mac	0	2023-02-15	16:20:58	12345	1	1	experiment	8	dispFeedback_U	1000	1	90	DEV	POS	1	78	0.6380846215184458048	49.5111482218999796601	78	0.1378771867924084016	90	25	1	3	0	15	0	7	42	26	11	24	1	1036	10462	823	6
6.6.1	mac	0	2023-02-15	16:20:58	12345	1	1	experiment	8	experiment_U	273	1	45	DEV	POS	1						45	25	1	3	0	15	0	7	42	26	11	24	1	1036	10462	823	6
6.6.1	mac	0	2023-02-15	16:20:58	12345	1	1	experiment	8	dispFeedback_U	1000	1	45	DEV	POS	1	84	0.2981124759418241066	25.058782037373084961	84	0.1449394559359502566	45	25	1	3	0	16	0	7	42	27	11	24	1	3773	10546	829	6
6.6.1	mac	0	2023-02-15	16:20:58	12345	1	1	experiment	8	experiment_U	292	1	5	DEV	POS	1						5	25	1	3	0	16	0	7	42	27	11	24	1	3773	10546	829	6
6.6.1	mac	0	2023-02-15	16:20:58	12345	1	1	experiment	8	dispFeedback_U	1000	1	5	DEV	POS	1	74	0.4986692556755639716	37.0054519807019204336	1	0.9667248770051460882	5	25	1	3	0	17	0	7	42	28	11	24	1	1792	10547	830	1
6.6.1	mac	0	2023-02-15	16:20:58	12345	1	1	experiment	8	experiment_U	246	1	39	DEV	POS	1						39	25	1	3	0	17	0	7	42	28	11	24	1	1792	10547	830	1
6.6.1	mac	0	2023-02-15	16:20:58	12345	1	1	experiment	8	dispFeedback_U	1000	1	39	DEV	POS	1	87	0.3232674193308846533	28.2209201546524255377	87	0.054953967466706867	39	25	1	3	0	18	0	7	42	29	11	24	1	3446	10634	836	6
6.6.1	mac	0	2023-02-15	16:20:58	12345	1	1	experiment	8	experiment_U	235	1	97	DEV	POS	1						97	25	1	3	0	18	0	7	42	29	11	24	1	3446	10634	836	6
6.6.1	mac	0	2023-02-15	16:20:58	12345	1	1	experiment	8	dispFeedback_U	1000	1	97	DEV	POS	1	71	0.5773860332324328715	41.0997876495543579267	71	0.2887572376729821144	97	25	1	3	0	19	0	7	42	30	11	24	1	1335	10705	841	5
6.6.1	mac	0	2023-02-15	16:20:58	12345	1	1	experiment	8	experiment_U	256	1	58	DEV	POS	1						58	25	1	3	0	19	0	7	42	30	11	24	1	1335	10705	841	5
6.6.1	mac	0	2023-02-15	16:20:58	12345	1	1	experiment	8	dispFeedback_U	1000	1	58	DEV	POS	1	86	0.2459077084673552682	21.2419298296314238428	1	0.6483472361341927614	58	25	1	3	0	20	0	7	42	31	11	24	1	4406	10706	842	1
6.6.1	mac	0	2023-02-15	16:20:58	12345	1	1	experiment	8	experiment_U	229	1	4	DEV	POS	1						4	25	1	3	0	20	0	7	42	31	11	24	1	4406	10706	842	1
6.6.1	mac	0	2023-02-15	16:20:58	12345	1	1	experiment	8	dispFeedback_U	1000	1	4	DEV	POS	1	74	0.5165825813359959939	38.0950493180813509753	74	0.2431142179395803793	4	25	1	3	0	21	0	7	42	32	11	24	2	1679	10780	847	5
6.6.1	mac	0	2023-02-15	16:20:58	12345	1	1	experiment	8	experiment_U	235	1	3	DEV	POS	1						3	25	1	3	0	21	0	7	42	32	11	24	2	1679	10780	847	5
6.6.1	mac	0	2023-02-15	16:20:58	12345	1	1	experiment	8	dispFeedback_U	1000	1	3	DEV	POS	1	77	0.5238284736183629331	40.1030883109262674679	1	0.9468304361092928501	3	25	1	3	0	21	1	7	42	33	11	24	2	1635	10781	848	1
6.6.1	mac	0	2023-02-15	16:20:58	12345	1	1	experiment	8	experiment_U	208	1	16	DEV	POS	1						16	25	1	3	0	21	1	7	42	33	11	24	2	1635	10781	848	1
6.6.1	mac	0	2023-02-15	16:20:58	12345	1	1	experiment	8	dispFeedback_U	1000	1	16	DEV	POS	1	84	0.4347369945599082186	36.4842964751488239017	84	0.1733661105794287449	16	25	1	3	0	21	2	7	42	34	11	24	2	2258	10865	854	6
6.6.1	mac	0	2023-02-15	16:20:58	12345	1	1	experiment	8	experiment_U	246	1	21	DEV	POS	1						21	25	1	3	0	21	2	7	42	34	11	24	2	2258	10865	854	6
6.6.1	mac	0	2023-02-15	16:20:58	12345	1	1	experiment	8	dispFeedback_U	1000	1	21	DEV	POS	1	78	0.4022702809926996803	31.3174604256633806187	1	0.7874918761168354653	21	25	1	3	0	21	3	7	42	35	11	24	2	2546	10866	855	1
6.6.1	mac	0	2023-02-15	16:20:58	12345	1	1	experiment	8	experiment_U	203	1	4	DEV	POS	1						4	25	1	3	0	21	3	7	42	35	11	24	2	2546	10866	855	1
6.6.1	mac	0	2023-02-15	16:20:58	12345	1	1	experiment	8	dispFeedback_U	1000	1	4	DEV	POS	1	75	0.5208457149085460314	38.8730407001830897684	1	0.7321941258227904203	4	25	1	3	0	21	4	7	42	36	11	24	2	1653	10867	856	1
6.6.1	mac	0	2023-02-15	16:20:58	12345	1	1	experiment	8	experiment_U	225	1	82	DEV	POS	1						82	25	1	3	0	21	4	7	42	36	11	24	2	1653	10867	856	1
6.6.1	mac	0	2023-02-15	16:20:58	12345	1	1	experiment	8	dispFeedback_U	1000	1	82	DEV	POS	1	71	0.7455841614058482669	52.5689133358211648783	71	0.4838998123267432283	82	25	1	3	0	21	5	7	42	37	11	24	2	575	10938	861	5
6.6.1	mac	0	2023-02-15	16:20:58	12345	1	1	experiment	8	experiment_U	183	1	9	DEV	POS	1						9	25	1	3	0	21	5	7	42	37	11	24	2	575	10938	861	5
6.6.1	mac	0	2023-02-15	16:20:58	12345	1	1	experiment	8	dispFeedback_U	1000	1	9	DEV	POS	1	80	0.4849564019625187683	38.5865589785048967997	1	0.8016144865661892771	9	25	1	3	0	21	6	7	42	38	11	24	2	1883	10939	862	1
6.6.1	mac	0	2023-02-15	16:20:58	12345	1	1	experiment	8	experiment_U	223	1	9	DEV	POS	1						9	25	1	3	0	21	6	7	42	38	11	24	2	1883	10939	862	1
6.6.1	mac	0	2023-02-15	16:20:58	12345	1	1	experiment	8	dispFeedback_U	1000	1	9	DEV	POS	1	81	0.4791253188291278997	38.6753501921602307334	1	0.9549595091852730588	9	25	1	3	0	21	7	7	42	39	11	24	2	1923	10940	863	1
6.6.1	mac	0	2023-02-15	16:20:58	12345	1	1	experiment	8	experiment_U	212	1	61	DEV	POS	1						61	25	1	3	0	21	7	7	42	39	11	24	2	1923	10940	863	1
6.6.1	mac	0	2023-02-15	16:20:58	12345	1	1	experiment	8	dispFeedback_U	1000	1	61	DEV	POS	1	84	0.2361540922514066554	19.7394568324582735386	1	0.5389922113481425692	61	25	1	3	0	21	8	7	42	40	11	24	2	4512	10941	864	1
6.6.1	mac	0	2023-02-15	16:20:58	12345	1	1	experiment	8	experiment_U	234	1	6	DEV	POS	1						6	25	1	3	0	21	8	7	42	40	11	24	2	4512	10941	864	1
6.6.1	mac	0	2023-02-15	16:20:58	12345	1	1	experiment	8	dispFeedback_U	1000	1	6	DEV	POS	1	78	0.4999049098866307217	39.0806934263702672183	78	0.3489207023170126098	6	25	1	3	0	21	9	7	42	41	11	24	2	1784	11019	870	6
6.6.1	mac	0	2023-02-15	16:20:58	12345	1	1	experiment	8	experiment_U	270	1	43	DEV	POS	1						43	25	1	3	0	21	9	7	42	41	11	24	2	1784	11019	870	6
6.6.1	mac	0	2023-02-15	16:20:58	12345	1	1	experiment	8	dispFeedback_U	1000	1	43	DEV	POS	1	84	0.3060435406320398122	25.6541557629977710064	1	0.4925933385949100574	43	25	1	3	0	21	10	7	42	42	11	24	2	3670	11020	871	1
6.6.1	mac	0	2023-02-15	16:20:58	12345	1	1	endscreen	10	endscreen	5000	1	43	DEV	POS	1						43	25	1	3	0	21	10	7	42	42	11	24	2	3670	11020	871	
