build	computer.platform	computer.touch	date	time	subject	group	sessionid	blockcode	blocknum	trialcode	latency	randStart	startPos	scrfunc	rtvspos	randStart	circleproportion	mag	freq	ev	inc	rng	startPos	n_revolutions	totalPoints	totalEarnings	Earnings
6.6.1	mac	0	2023-01-18	13:55:13	1	1	1	experiment	1	experiment_noU	1098	1	44	IEV	POS	1	0.3300000000000000155						44	2192	0	0	
6.6.1	mac	0	2023-01-18	13:55:13	1	1	1	experiment	1	dispFeedback_noU	1000	1	44	IEV	POS	1	0.3300000000000000155	229	0.9630444658667386415	220.6828885242981073134	229	0.1387399987174989524	44	2192	229	0	
6.6.1	mac	0	2023-01-18	13:55:13	1	1	1	experiment	1	experiment_noU	1117	1	42	IEV	POS	1	0.3300000000000000155						42	5361	229	0	
6.6.1	mac	0	2023-01-18	13:55:13	1	1	1	experiment	1	dispFeedback_noU	1000	1	42	IEV	POS	1	0.3300000000000000155	222	0.9739504912056102803	216.3008003827891343462	222	0.8646040078868633127	42	5361	451	0	
6.6.1	mac	0	2023-01-18	13:55:13	1	1	1	experiment	1	experiment_U	1055	1	77	IEV	POS	1	0.3300000000000000155						77	8464	451	0	
6.6.1	mac	0	2023-01-18	13:55:13	1	1	1	experiment	1	dispFeedback_U	1000	1	77	IEV	POS	1	0.3300000000000000155	31	1.0493246568223031367	32.7068921082515373655	31	0.5199596994835790076	77	8464	482	4	4
6.6.1	mac	0	2023-01-18	13:55:13	1	1	1	experiment	1	experiment_U	4322	1	80	IEV	POS	1	0.3300000000000000155						80	14830	482	4	4
6.6.1	mac	0	2023-01-18	13:55:13	1	1	1	experiment	1	dispFeedback_U	1000	1	80	IEV	POS	1	0.3300000000000000155	233	0.9597804138023968701	223.8761863866257328937	233	0.3393697825584955918	80	14830	715	4	4
6.6.1	mac	0	2023-01-18	13:55:13	1	1	1	experiment	1	experiment_U	1556	1	36	IEV	POS	1	0.3300000000000000155						36	18414	715	4	4
6.6.1	mac	0	2023-01-18	13:55:13	1	1	1	experiment	1	dispFeedback_U	1000	1	36	IEV	POS	1	0.3300000000000000155	236	0.9551332476236593649	225.6734591805191030289	236	0.5761527324971167374	36	18414	951	4	4
6.6.1	mac	0	2023-01-18	13:55:13	1	1	1	experiment	1	experiment_U	3940	1	88	IEV	POS	1	0.3300000000000000155						88	24381	951	4	4
6.6.1	mac	0	2023-01-18	13:55:13	1	1	1	experiment	1	dispFeedback_U	1000	1	88	IEV	POS	1	0.3300000000000000155	236	0.9573234132787610262	226.3238659671752941449	236	0.1309524399998952815	88	24381	1187	4	4
6.6.1	mac	0	2023-01-18	13:55:13	1	1	1	experiment	1	experiment_U	902	1	61	IEV	POS	1	0.3300000000000000155						61	27292	1187	4	4
6.6.1	mac	0	2023-01-18	13:55:13	1	1	1	experiment	1	dispFeedback_U	1000	1	61	IEV	POS	1	0.3300000000000000155	16	0.9284804690354784285	15.2596512939166970568	16	0.4474027460551361357	61	27292	1203	5	1
6.6.1	mac	0	2023-01-18	13:55:13	1	1	1	experiment	1	experiment_U	2496	1	16	IEV	POS	1	0.3300000000000000155						16	31820	1203	5	1
6.6.1	mac	0	2023-01-18	13:55:13	1	1	1	experiment	1	dispFeedback_U	1000	1	16	IEV	POS	1	0.3300000000000000155	232	0.9633158333188336364	223.3102585600700251689	232	0.699976165709080167	16	31820	1435	5	1
6.6.1	mac	0	2023-01-18	13:55:13	1	1	1	experiment	2	experiment_noU	4138	1	0	DEV	POS	1	0.3300000000000000155						0	37995	1435	5	1
6.6.1	mac	0	2023-01-18	13:55:13	1	1	1	experiment	2	dispFeedback_noU	1000	1	0	DEV	POS	1	0.3300000000000000155	71	0.7936057778482059621	55.9577809396230989591	71	0.5101182911335766512	0	37995	1506	12	7
6.6.1	mac	0	2023-01-18	13:55:13	1	1	1	experiment	2	experiment_noU	643	1	95	DEV	POS	1	0.3300000000000000155						95	40649	1506	12	7
6.6.1	mac	0	2023-01-18	13:55:13	1	1	1	experiment	2	dispFeedback_noU	1000	1	95	DEV	POS	1	0.3300000000000000155	68	0.5224996280923441816	35.2743696428171702451	68	0.2651264947525054372	95	40649	1574	19	7
6.6.1	mac	0	2023-01-18	13:55:13	1	1	1	experiment	2	experiment_U	3033	1	22	DEV	POS	1	0.3300000000000000155						22	45705	1574	19	7
6.6.1	mac	0	2023-01-18	13:55:13	1	1	1	experiment	2	dispFeedback_U	1000	1	22	DEV	POS	1	0.3300000000000000155	70	0.7949214658603329653	55.2556296924563739026	70	0.2233769512324074724	22	45705	1644	26	7
6.6.1	mac	0	2023-01-18	13:55:13	1	1	1	experiment	2	experiment_U	4589	1	90	DEV	POS	1	0.3300000000000000155						90	52312	1644	26	7
6.6.1	mac	0	2023-01-18	13:55:13	1	1	1	experiment	2	dispFeedback_U	1000	1	90	DEV	POS	1	0.3300000000000000155	65	0.8065673619146703777	52.0323084733556697756	65	0.0294795595178100195	90	52312	1709	33	7
6.6.1	mac	0	2023-01-18	13:55:13	1	1	1	experiment	2	experiment_noU	1604	1	80	DEV	POS	1	0.3300000000000000155						80	55943	1709	33	7
