build	computer.platform	computer.touch	date	time	subject	group	sessionid	blockcode	blocknum	trialcode	latency	randStart	startPos	scrfunc	rtvspos	randStart	circleproportion	mag	freq	ev	inc	rng	startPos	n_revolutions	totalPoints	totalEarnings	Earnings
6.6.1	mac	0	2023-01-13	16:40:28	1	1	1	instructions	1	instructions1	4369	1	75	IEV	POS	1	0.3300000000000000155						75	0	0	0	
6.6.1	mac	0	2023-01-13	16:40:28	1	1	1	instructions	1	displayGoodJob	793	1	75	IEV	POS	1	0.3300000000000000155						75	0	0	0	
6.6.1	mac	0	2023-01-13	16:40:28	1	1	1	instructions	1	instructions3	5160	1	75	IEV	POS	1	0.3300000000000000155						75	0	0	0	
6.6.1	mac	0	2023-01-13	16:40:28	1	1	1	instructions	1	countdown	1000	1	75	IEV	POS	1	0.3300000000000000155						75	0	0	0	
6.6.1	mac	0	2023-01-13	16:40:28	1	1	1	experiment	2	experiment	3098	1	1	IEV	POS	1	0.3300000000000000155						1	22427	0	0	
6.6.1	mac	0	2023-01-13	16:40:28	1	1	1	experiment	2	dispFeedback	1000	1	1	IEV	POS	1	0.3300000000000000155	209	0.9830908469944643624	205.3028890599200622091	209	0.0318385015781592826	1	22427	209	0	
6.6.1	mac	0	2023-01-13	16:40:28	1	1	1	experiment	2	experiment	3787	1	64	IEV	POS	1	0.3300000000000000155						64	28234	209	0	
6.6.1	mac	0	2023-01-13	16:40:28	1	1	1	experiment	2	dispFeedback	1000	1	64	IEV	POS	1	0.3300000000000000155	107	1.1013041290875318357	117.4039134090872806837	107	0.4158424857109418449	64	28234	316	10	10
6.6.1	mac	0	2023-01-13	16:40:28	1	1	1	experiment	2	experiment	2082	1	99	IEV	POS	1	0.3300000000000000155						99	32344	316	10	10
6.6.1	mac	0	2023-01-13	16:40:28	1	1	1	experiment	2	dispFeedback	1000	1	99	IEV	POS	1	0.3300000000000000155	104	1.0983822808399583693	114.3701997733460729023	104	0.9152448682382807732	99	32344	420	20	10
6.6.1	mac	0	2023-01-13	16:40:28	1	1	1	experiment	2	experiment	2668	1	32	IEV	POS	1	0.3300000000000000155						32	37048	420	20	10
6.6.1	mac	0	2023-01-13	16:40:28	1	1	1	experiment	2	dispFeedback	1000	1	32	IEV	POS	1	0.3300000000000000155	25	0.9719444695236038045	24.3740097214260487135	25	0.1600216117594441545	32	37048	445	24	4
6.6.1	mac	0	2023-01-13	16:40:28	1	1	1	experiment	2	experiment	4335	1	0	IEV	POS	1	0.3300000000000000155						0	43415	445	24	4
6.6.1	mac	0	2023-01-13	16:40:28	1	1	1	experiment	2	dispFeedback	1000	1	0	IEV	POS	1	0.3300000000000000155	24	0.9808527141013254624	23.6658836517480004602	24	0.7992920986840715836	0	43415	469	26	2
6.6.1	mac	0	2023-01-13	16:40:28	1	1	1	experiment	3	experiment	2046	1	83	IEV	POS	1	0.3300000000000000155						83	47509	469	26	2
6.6.1	mac	0	2023-01-13	16:40:28	1	1	1	experiment	3	dispFeedback	1000	1	83	IEV	POS	1	0.3300000000000000155	70	1.1248705034746966369	78.6228337311182770009	70	0.9709450418527575399	83	47509	539	33	7
6.6.1	mac	0	2023-01-13	16:40:28	1	1	1	experiment	3	experiment	3146	1	19	IEV	POS	1	0.3300000000000000155						19	52677	539	33	7
6.6.1	mac	0	2023-01-13	16:40:28	1	1	1	experiment	3	dispFeedback	1000	1	19	IEV	POS	1	0.3300000000000000155	16	0.9485302069528191993	15.6408197299835602934	16	0.6393358513338807114	19	52677	555	34	1
6.6.1	mac	0	2023-01-13	16:40:28	1	1	1	experiment	3	experiment	2313	1	36	IEV	POS	1	0.3300000000000000155						36	57012	555	34	1
6.6.1	mac	0	2023-01-13	16:40:28	1	1	1	experiment	3	dispFeedback	1000	1	36	IEV	POS	1	0.3300000000000000155	21	0.950874142796281463	19.7198453141279195222	21	0.784900868028612031	36	57012	576	36	2
6.6.1	mac	0	2023-01-13	16:40:28	1	1	1	experiment	3	experiment	1821	1	68	IEV	POS	1	0.3300000000000000155						68	60851	576	36	2
