build	computer.platform	computer.touch	date	time	subject	group	sessionid	blockcode	blocknum	trialcode	latency	randStart	startPos	scrfunc	rtvspos	randStart	circleproportion	mag	freq	ev	inc	rng	startPos	n_revolutions	totalPoints	totalEarnings	Earnings
6.6.1	mac	0	2023-01-18	14:50:36	1	1	1	experiment	1	experiment_noU	1946	1	40	DEV	POS	1	0.3300000000000000155						40	3050	0	0	
6.6.1	mac	0	2023-01-18	14:50:36	1	1	1	experiment	1	dispFeedback_noU	1000	1	40	DEV	POS	1	0.3300000000000000155	69	0.8452210142559182238	57.906770695341627686	69	0.1704246460391266038	40	3050	69	7	7
6.6.1	mac	0	2023-01-18	14:50:36	1	1	1	experiment	1	experiment_noU	3245	1	13	DEV	POS	1	0.3300000000000000155						13	8313	69	7	7
6.6.1	mac	0	2023-01-18	14:50:36	1	1	1	experiment	1	dispFeedback_noU	1000	1	13	DEV	POS	1	0.3300000000000000155	66	0.8592863158919116229	56.2925368621139696756	66	0.4518334857308849428	13	8313	135	14	7
6.6.1	mac	0	2023-01-18	14:50:36	1	1	1	experiment	1	experiment_U	665	1	75	DEV	POS	1	0.3300000000000000155						75	11000	135	14	7
6.6.1	mac	0	2023-01-18	14:50:36	1	1	1	experiment	1	dispFeedback_U	1000	1	75	DEV	POS	1	0.3300000000000000155	66	0.7233368237696772285	47.3863764181028912503	66	0.4462548758476634903	75	11000	201	21	7
6.6.1	mac	0	2023-01-18	14:50:36	1	1	1	experiment	1	experiment_U	317	1	79	DEV	POS	1	0.3300000000000000155						79	13337	201	21	7
6.6.1	mac	0	2023-01-18	14:50:36	1	1	1	experiment	1	dispFeedback_U	1000	1	79	DEV	POS	1	0.3300000000000000155	66	0.7602253724434359095	49.8029748761524118095	0	0.7893219456983082694	79	13337	201	21	0
6.6.1	mac	0	2023-01-18	14:50:36	1	1	1	experiment	1	experiment_U	2528	1	30	DEV	POS	1	0.3300000000000000155						30	17895	201	21	0
6.6.1	mac	0	2023-01-18	14:50:36	1	1	1	experiment	1	dispFeedback_U	1000	1	30	DEV	POS	1	0.3300000000000000155	66	0.82290937959141508	53.9094545416408763572	66	0.2063946710448699706	30	17895	267	28	7
6.6.1	mac	0	2023-01-18	14:50:36	1	1	1	experiment	1	experiment_U	344	1	85	DEV	POS	1	0.3300000000000000155						85	20263	267	28	7
6.6.1	mac	0	2023-01-18	14:50:36	1	1	1	experiment	1	dispFeedback_U	1000	1	85	DEV	POS	1	0.3300000000000000155	66	0.6808712149528020063	44.6044202697441178884	66	0.5742645749296677593	85	20263	333	35	7
6.6.1	mac	0	2023-01-18	14:50:36	1	1	1	experiment	1	experiment_U	314	1	2	DEV	POS	1	0.3300000000000000155						2	22598	333	35	7
6.6.1	mac	0	2023-01-18	14:50:36	1	1	1	experiment	1	dispFeedback_U	1000	1	2	DEV	POS	1	0.3300000000000000155	61	0.5190355610046074597	31.4072587638320150916	0	0.8127146560728351066	2	22598	333	35	0
6.6.1	mac	0	2023-01-18	14:50:36	1	1	1	experiment	1	experiment_U	220	1	33	DEV	POS	1	0.3300000000000000155						33	24839	333	35	0
6.6.1	mac	0	2023-01-18	14:50:36	1	1	1	experiment	1	dispFeedback_U	1000	1	33	DEV	POS	1	0.3300000000000000155	63	0.3492233743666579571	21.8302336804091652311	0	0.9686673323085223108	33	24839	333	35	0
6.6.1	mac	0	2023-01-18	14:50:36	1	1	1	experiment	2	experiment_noU	545	1	62	CEV	POS	1	0.3300000000000000155						62	27430	333	35	0
6.6.1	mac	0	2023-01-18	14:50:36	1	1	1	experiment	2	dispFeedback_noU	1000	1	62	CEV	POS	1	0.3300000000000000155	180	0.200714285714285734	36.1971428571428575083	0	0.5922849112172342556	62	27430	333	35	0
6.6.1	mac	0	2023-01-18	14:50:36	1	1	1	experiment	2	experiment_noU	2635	1	77	CEV	POS	1	0.3300000000000000155						77	32085	333	35	0
6.6.1	mac	0	2023-01-18	14:50:36	1	1	1	experiment	2	dispFeedback_noU	1000	1	77	CEV	POS	1	0.3300000000000000155	71	0.5092857142857143415	35.9814285714285730933	71	0.1533991778626570546	77	32085	404	42	7
6.6.1	mac	0	2023-01-18	14:50:36	1	1	1	experiment	2	experiment_U	1120	1	62	CEV	POS	1	0.3300000000000000155						62	35220	404	42	7
6.6.1	mac	0	2023-01-18	14:50:36	1	1	1	experiment	2	dispFeedback_U	1000	1	62	CEV	POS	1	0.3300000000000000155	46	0.8328571428571428514	38.6657142857142872572	46	0.1492080481604691755	62	35220	450	47	5
6.6.1	mac	0	2023-01-18	14:50:36	1	1	1	experiment	2	experiment_U	642	1	33	CEV	POS	1	0.3300000000000000155						33	37875	450	47	5
6.6.1	mac	0	2023-01-18	14:50:36	1	1	1	experiment	2	dispFeedback_U	1000	1	33	CEV	POS	1	0.3300000000000000155	89	0.3940000000000000169	35.0300000000000011369	0	0.5936894534606694807	33	37875	450	47	0
6.6.1	mac	0	2023-01-18	14:50:36	1	1	1	experiment	2	experiment_noU	488	1	43	CEV	POS	1	0.3300000000000000155						43	40387	450	47	0
6.6.1	mac	0	2023-01-18	14:50:36	1	1	1	experiment	2	dispFeedback_noU	1000	1	43	CEV	POS	1	0.3300000000000000155	111	0.3445714285714285285	38.3782857142857096733	0	0.9765495059491483554	43	40387	450	47	0
6.6.1	mac	0	2023-01-18	14:50:36	1	1	1	experiment	2	experiment_noU	0	1	95	CEV	POS	1	0.3300000000000000155						95	41884	450	47	0
