build	computer.platform	computer.touch	date	time	subject	group	sessionid	blockcode	blocknum	trialcode	preClockFreezeBlock	list.preClockFreeze.currentvalue	latency	list.ISI.currentvalue	list.ITI.currentvalue	trial.instructions5_1.response	trial.instructions5_2.response	startPos	scrfunc	rtvspos	randStart	mag	freq	ev	inc	inc_rg	rng	fogPos1	fogPos3	fogPos5	fogPos_out	list.wind_size.currentvalue	windPos2	windPos4	windPos6	windPos_out	chooseFog1	chooseWind2	chooseFog3	chooseWind4	chooseFog5	chooseWind6	choose_unc_att1	choose_unc_att_out1	choose_unc_att2	choose_unc_att_out2	choose_unc_att3	choose_unc_att_out3	choose_unc_att4	choose_unc_att_out4	unc_att_count1	unc_att_count_out1	unc_att_count2	unc_att_count_out2	unc_att_count3	unc_att_count_out3	unc_att_count4	unc_att_count_out4	unc_att_count5	unc_att_count_out5	unc_att_count6	unc_att_count_out6	chooseAttentionalControl	chooseUncertainty	blockCount	ntrials	trialCount	meta_trialCount	attentional_control	local_uncertainty	unc_att_start1	unc_att_start2	unc_att_start3	unc_att_start4	unc_att_start5	unc_att_start6	unc_att_block	list.rt_0.currentindex	rt_shifted	pos_shifted	totalPoints	totalEarnings	Earnings
6.6.1	mac	0	2023-09-15	20:14:08	1	1	1	experiment	1	experiment_noU	2	750	261	300	260			64	dynamic	POS	1							5	25	2			40	25	5		0	0	0	0	0	0	0	0	0	0	0	0	0	0	0	0	0	0	0	0	0	0	0	0	0	0	0	0	1	45	1	0	cloud	wind	6	17	27	35	0	0	0	1			0	0	
6.6.1	mac	0	2023-09-15	20:14:08	1	1	1	experiment	1	dispFeedback_noU	2	750	1000	300	260			64	dynamic	POS	1	31	0.6999999999999999556	21.6999999999999992895	31	25	0.5435458676758095908	5	25	2			40	25	5		0	0	0	0	0	0	0	0	0	0	0	0	0	0	0	0	0	0	0	0	0	0	0	0	0	0	0	0	1	45	1	0	cloud	wind	6	17	27	35	0	0	0	1	4711	339.192000000000007276	31	0	25
6.6.1	mac	0	2023-09-15	20:14:08	1	1	1	experiment	1	experiment_noU	2	750	312	510	360			87	dynamic	POS	1					25		5	25	2			40	25	5		0	0	0	0	0	0	0	0	0	0	0	0	0	0	0	0	0	0	0	0	0	0	0	0	0	0	0	0	1	45	2	0	cloud	wind	6	17	27	35	0	0	0	2	4711	339.192000000000007276	31	0	25
6.6.1	mac	0	2023-09-15	20:14:08	1	1	1	experiment	1	dispFeedback_noU	2	750	1000	510	360			87	dynamic	POS	1	5	0.6999999999999999556	3.5	5	10	0.1034385573825423038	5	25	2			40	25	5		0	0	0	0	0	0	0	0	0	0	0	0	0	0	0	0	0	0	0	0	0	0	0	0	0	0	0	0	1	45	2	0	cloud	wind	6	17	27	35	0	0	0	2	912	65.6640000000000014779	36	0	10
6.6.1	mac	0	2023-09-15	20:14:08	1	1	1	experiment	1	experiment_noU	2	750	6500	420	220			93	dynamic	POS	1					10		5	25	2			40	25	5		0	0	0	0	0	0	0	0	0	0	0	0	0	0	0	0	0	0	0	0	0	0	0	0	0	0	0	0	1	45	3	0	cloud	wind	6	17	27	35	0	0	0	3	912	65.6640000000000014779	36	0	10
6.6.1	mac	0	2023-09-15	20:14:08	1	1	1	experiment	1	dispFeedback_noU	2	750	1000	420	220			93	dynamic	POS	1	163	0.6999999999999999556	114.0999999999999943157	1	10	0.7436794442459194743	5	25	2			40	25	5		0	0	0	0	0	0	0	0	0	0	0	0	0	0	0	0	0	0	0	0	0	0	0	0	0	0	0	0	1	45	3	0	cloud	wind	6	17	27	35	0	0	0	3	2400	172.8000000000000113687	37	0	10
6.6.1	mac	0	2023-09-15	20:14:08	1	1	1	experiment	1	experiment_noU	2	750	6500	500	180			34	dynamic	POS	1					10		5	25	2			40	25	5		0	0	0	0	0	0	0	0	0	0	0	0	0	0	0	0	0	0	0	0	0	0	0	0	0	0	0	0	1	45	4	0	cloud	wind	6	17	27	35	0	0	0	4	2400	172.8000000000000113687	37	0	10
6.6.1	mac	0	2023-09-15	20:14:08	1	1	1	experiment	1	dispFeedback_noU	2	750	1000	500	180			34	dynamic	POS	1	14	0.6999999999999999556	9.7999999999999989342	14	14	0.3573615344607647404	5	25	2			40	25	5		0	0	0	0	0	0	0	0	0	0	0	0	0	0	0	0	0	0	0	0	0	0	0	0	0	0	0	0	1	45	4	0	cloud	wind	6	17	27	35	0	0	0	4	4450	320.3999999999999772626	51	0	14
6.6.1	mac	0	2023-09-15	20:14:08	1	1	1	experiment	1	experiment_U	2	750	6500	540	480			96	dynamic	POS	1					14		5	25	2	300	30pct	40	25	5		0	0	0	0	0	0	0	0	0	0	0	0	0	0	0	1	0	0	0	0	0	0	0	0	0	0	0	0	1	45	6	1	cloud	wind	6	17	27	35	0	0	1	5	4450	320.3999999999999772626	51	0	14
6.6.1	mac	0	2023-09-15	20:14:08	1	1	1	experiment	1	dispFeedback_U	2	750	1000	540	480			96	dynamic	POS	1	163	0.6999999999999999556	114.0999999999999943157	163	14	0.4653226410656521872	5	25	2	300	30pct	40	25	5		0	0	0	0	0	0	0	0	0	0	0	0	0	0	1	1	0	0	0	0	0	0	0	0	0	0	0	0	1	45	6	1	cloud	wind	6	17	27	35	0	0	1	5	2550	183.5999999999999943157	214	0	0
6.6.1	mac	0	2023-09-15	20:14:08	1	1	1	experiment	1	experiment_U	2	750	933	520	420			43	dynamic	POS	1					14		5	25	2	300	30pct	40	25	5		0	0	0	0	0	0	0	0	0	0	0	0	0	0	1	2	0	0	0	0	0	0	0	0	0	0	0	0	1	45	8	2	cloud	wind	6	17	27	35	0	0	1	6	2550	183.5999999999999943157	214	0	0
6.6.1	mac	0	2023-09-15	20:14:08	1	1	1	experiment	1	dispFeedback_U	2	750	1000	520	420			43	dynamic	POS	1	8	0.6999999999999999556	5.5999999999999996447	8	9	0.5520170604698400041	5	25	2	300	30pct	40	25	5		1	0	0	0	0	0	1	1	0	0	0	0	0	0	2	2	0	0	0	0	0	0	0	0	0	0	1	0	1	45	8	2	cloud	wind	6	17	27	35	0	0	1	6	4333	311.9759999999999990905	222	0	9
6.6.1	mac	0	2023-09-15	20:14:08	1	1	1	experiment	1	experiment_U	2	750	1710	530	340			23	dynamic	POS	1					9		5	25	2	300	30pct	40	25	5		1	0	0	0	0	0	1	0	0	0	0	0	0	0	2	3	0	0	0	0	0	0	0	0	0	0	0	0	1	45	10	3	cloud	wind	6	17	27	35	0	0	1	7	4333	311.9759999999999990905	222	0	9
6.6.1	mac	0	2023-09-15	20:14:08	1	1	1	experiment	1	dispFeedback_U	2	750	1000	530	340			23	dynamic	POS	1	3	0.6999999999999999556	2.0999999999999996447	3	10	0.149363310111072678	5	25	2	300	30pct	40	25	5		1	0	0	0	0	0	2	1	0	0	0	0	0	0	3	3	0	0	0	0	0	0	0	0	0	0	1	0	1	45	10	3	cloud	wind	6	17	27	35	0	0	1	7	4110	295.9200000000000159162	225	0	10
6.6.1	mac	0	2023-09-15	20:14:08	1	1	1	experiment	1	experiment_noU	2	750	636	230	450			86	dynamic	POS	1					10		5	25	2		30pct	40	25	5		0	0	0	0	0	0	2	0	0	0	0	0	0	0	3	0	0	0	0	0	0	0	0	0	0	0	0	0	1	45	11	3	cloud	wind	6	12	27	35	0	0	0	8	4110	295.9200000000000159162	225	0	10
6.6.1	mac	0	2023-09-15	20:14:08	1	1	1	experiment	1	dispFeedback_noU	2	750	1000	230	450			86	dynamic	POS	1	4	0.6999999999999999556	2.7999999999999998224	4	5	0.4118946100147195533	5	25	2		30pct	40	25	5		0	0	0	0	0	0	2	0	0	0	0	0	0	0	3	0	0	0	0	0	0	0	0	0	0	0	0	0	1	45	11	3	cloud	wind	6	12	27	35	0	0	0	8	1186	85.3919999999999959073	229	0	5
6.6.1	mac	0	2023-09-15	20:14:08	1	1	1	experiment	1	experiment_U	2	750	1565	460	170			68	dynamic	POS	1					5		5	25	2		30pct	40	25	5	90	0	0	0	0	0	0	2	0	0	0	0	0	0	0	3	0	0	1	0	0	0	0	0	0	0	0	0	0	1	45	13	4	cloud	wind	6	12	27	35	0	0	2	9	1186	85.3919999999999959073	229	0	5
6.6.1	mac	0	2023-09-15	20:14:08	1	1	1	experiment	1	dispFeedback_U	2	750	1000	460	170			68	dynamic	POS	1	6	0.6999999999999999556	4.1999999999999992895	6	10	0.0612870070760340932	5	25	2		30pct	0	25	5	90	0	0	0	0	0	0	2	0	0	0	0	0	0	0	3	0	1	1	0	0	0	0	0	0	0	0	0	0	1	45	13	4	cloud	wind	6	12	27	35	0	0	2	9	1215	87.480000000000003979	235	0	10
6.6.1	mac	0	2023-09-15	20:14:08	1	1	1	experiment	1	experiment_U	2	750	428	480	390			91	dynamic	POS	1					10		5	25	2		30pct	0	25	5	90	0	0	0	0	0	0	2	0	0	0	0	0	0	0	3	0	1	2	0	0	0	0	0	0	0	0	0	0	1	45	15	5	cloud	wind	6	12	27	35	0	0	2	10	1215	87.480000000000003979	235	0	10
6.6.1	mac	0	2023-09-15	20:14:08	1	1	1	experiment	1	dispFeedback_U	2	750	1000	480	390			91	dynamic	POS	1	7	0.6999999999999999556	4.8999999999999994671	7	10	0.4291215151150528095	5	25	2		30pct	0	25	5	90	0	0	0	0	0	0	2	0	0	0	0	0	0	0	3	0	2	2	0	0	0	0	0	0	0	0	0	0	1	45	15	5	cloud	wind	6	12	27	35	0	0	2	10	1228	88.4159999999999968168	242	0	10
6.6.1	mac	0	2023-09-15	20:14:08	1	1	1	experiment	1	experiment_U	2	750	1249	560	410			75	dynamic	POS	1					10		5	25	2		30pct	0	25	5	90	0	0	0	0	0	0	2	0	0	0	0	0	0	0	3	0	2	3	0	0	0	0	0	0	0	0	0	0	1	45	17	6	cloud	wind	6	12	27	35	0	0	2	11	1228	88.4159999999999968168	242	0	10
6.6.1	mac	0	2023-09-15	20:14:08	1	1	1	experiment	1	dispFeedback_U	2	750	1000	560	410			75	dynamic	POS	1	11	0.6999999999999999556	7.6999999999999992895	1	10	0.8318007690440399893	5	25	2		30pct	0	25	5	90	0	0	0	0	0	0	2	0	0	0	0	0	0	0	3	0	3	3	0	0	0	0	0	0	0	0	0	0	1	45	17	6	cloud	wind	6	12	27	35	0	0	2	11	1249	89.9279999999999972715	243	0	10
6.6.1	mac	0	2023-09-15	20:14:08	1	1	1	experiment	1	experiment_noU	2	750	538	260	470			15	dynamic	POS	1					10		5	25	2		30pct	0	25	5		0	0	0	0	0	0	2	0	0	0	0	0	0	0	3	0	3	0	0	0	0	0	0	0	0	0	0	0	1	45	18	6	cloud	wind	6	12	27	35	0	0	0	12	1249	89.9279999999999972715	243	0	10
6.6.1	mac	0	2023-09-15	20:14:08	1	1	1	experiment	1	dispFeedback_noU	2	750	1000	260	470			15	dynamic	POS	1	115	0.6999999999999999556	80.5	115	102	0.5494553212890064264	5	25	2		30pct	0	25	5		0	0	0	0	0	0	2	0	0	0	0	0	0	0	3	0	3	0	0	0	0	0	0	0	0	0	0	0	1	45	18	6	cloud	wind	6	12	27	35	0	0	0	12	2538	182.7359999999999899956	358	0	102
6.6.1	mac	0	2023-09-15	20:14:08	1	1	1	experiment	1	experiment_noU	2	750	360	410	490			6	dynamic	POS	1					102		5	25	2		30pct	0	25	5		0	0	0	0	0	0	2	0	0	0	0	0	0	0	3	0	3	0	0	0	0	0	0	0	0	0	0	0	1	45	19	6	cloud	wind	6	12	27	35	0	0	0	13	2538	182.7359999999999899956	358	0	102
6.6.1	mac	0	2023-09-15	20:14:08	1	1	1	experiment	1	dispFeedback_noU	2	750	1000	410	490			6	dynamic	POS	1	28	0.6999999999999999556	19.5999999999999978684	1	10	0.9649818935350007454	5	25	2		30pct	0	25	5		0	0	0	0	0	0	2	0	0	0	0	0	0	0	3	0	3	0	0	0	0	0	0	0	0	0	0	0	1	45	19	6	cloud	wind	6	12	27	35	0	0	0	13	1910	137.5200000000000102318	359	0	10
6.6.1	mac	0	2023-09-15	20:14:08	1	1	1	experiment	1	experiment_noU	2	750	405	440	440			64	dynamic	POS	1					10		5	25	2		30pct	0	25	5		0	0	0	0	0	0	2	0	0	0	0	0	0	0	3	0	3	0	0	0	0	0	0	0	0	0	0	0	1	45	20	6	cloud	wind	6	12	27	35	0	0	0	14	1910	137.5200000000000102318	359	0	10
6.6.1	mac	0	2023-09-15	20:14:08	1	1	1	experiment	1	dispFeedback_noU	2	750	1000	440	440			64	dynamic	POS	1	22	0.6999999999999999556	15.3999999999999985789	22	20	0.093750255204213373	5	25	2		30pct	0	25	5		0	0	0	0	0	0	2	0	0	0	0	0	0	0	3	0	3	0	0	0	0	0	0	0	0	0	0	0	1	45	20	6	cloud	wind	6	12	27	35	0	0	0	14	4855	349.5600000000000022737	381	0	20
6.6.1	mac	0	2023-09-15	20:14:08	1	1	1	experiment	1	experiment_noU	2	750	356	380	100			95	dynamic	POS	1					20		5	25	2		30pct	0	25	5		0	0	0	0	0	0	2	0	0	0	0	0	0	0	3	0	3	0	0	0	0	0	0	0	0	0	0	0	1	45	21	6	cloud	wind	6	12	27	35	0	0	0	15	4855	349.5600000000000022737	381	0	20
6.6.1	mac	0	2023-09-15	20:14:08	1	1	1	experiment	1	dispFeedback_noU	2	750	1000	380	100			95	dynamic	POS	1	5	0.6999999999999999556	3.5	5	10	0.1216929212961562201	5	25	2		30pct	0	25	5		0	0	0	0	0	0	2	0	0	0	0	0	0	0	3	0	3	0	0	0	0	0	0	0	0	0	0	0	1	45	21	6	cloud	wind	6	12	27	35	0	0	0	15	1356	97.6320000000000050022	386	0	10
6.6.1	mac	0	2023-09-15	20:14:08	1	1	1	experiment	1	experiment_noU	2	750	341	200	140			42	dynamic	POS	1					10		5	25	2		30pct	0	25	5		0	0	0	0	0	0	2	0	0	0	0	0	0	0	3	0	3	0	0	0	0	0	0	0	0	0	0	0	1	45	22	6	cloud	wind	6	12	27	35	0	0	0	16	1356	97.6320000000000050022	386	0	10
6.6.1	mac	0	2023-09-15	20:14:08	1	1	1	experiment	1	dispFeedback_noU	2	750	1000	200	140			42	dynamic	POS	1	25	0.6999999999999999556	17.5	25	22	0.3259742433032892239	5	25	2		30pct	0	25	5		0	0	0	0	0	0	2	0	0	0	0	0	0	0	3	0	3	0	0	0	0	0	0	0	0	0	0	0	1	45	22	6	cloud	wind	6	12	27	35	0	0	0	16	3691	265.7520000000000095497	411	0	22
6.6.1	mac	0	2023-09-15	20:14:08	1	1	1	experiment	1	experiment_noU	2	750	391	600	200			82	dynamic	POS	1					22		5	25	2		30pct	0	25	5		0	0	0	0	0	0	2	0	0	0	0	0	0	0	3	0	3	0	0	0	0	0	0	0	0	0	0	0	1	45	23	6	cloud	wind	6	12	27	35	0	0	0	17	3691	265.7520000000000095497	411	0	22
6.6.1	mac	0	2023-09-15	20:14:08	1	1	1	experiment	1	dispFeedback_noU	2	750	1000	600	200			82	dynamic	POS	1	21	0.6999999999999999556	14.6999999999999992895	21	22	0.5074988793366352891	5	25	2		30pct	0	25	5		0	0	0	0	0	0	2	0	0	0	0	0	0	0	3	0	3	0	0	0	0	0	0	0	0	0	0	0	1	45	23	6	cloud	wind	6	12	27	35	0	0	0	17	741	53.3519999999999967599	432	0	22
6.6.1	mac	0	2023-09-15	20:14:08	1	1	1	experiment	1	experiment_noU	2	750	504	360	280			4	dynamic	POS	1					22		5	25	2		30pct	0	25	5		0	0	0	0	0	0	2	0	0	0	0	0	0	0	3	0	3	0	0	0	0	0	0	0	0	0	0	0	1	45	24	6	cloud	wind	6	12	27	35	0	0	0	18	741	53.3519999999999967599	432	0	22
6.6.1	mac	0	2023-09-15	20:14:08	1	1	1	experiment	1	dispFeedback_noU	2	750	1000	360	280			4	dynamic	POS	1	94	0.6999999999999999556	65.7999999999999971578	1	10	0.8893081529273902941	5	25	2		30pct	0	25	5		0	0	0	0	0	0	2	0	0	0	0	0	0	0	3	0	3	0	0	0	0	0	0	0	0	0	0	0	1	45	24	6	cloud	wind	6	12	27	35	0	0	0	18	1954	140.6879999999999881766	433	0	10
6.6.1	mac	0	2023-09-15	20:14:08	1	1	1	experiment	1	experiment_noU	2	750	534	210	240			76	dynamic	POS	1					10		5	25	2		30pct	0	25	5		0	0	0	0	0	0	2	0	0	0	0	0	0	0	3	0	3	0	0	0	0	0	0	0	0	0	0	0	1	45	25	6	cloud	wind	6	12	27	35	0	0	0	19	1954	140.6879999999999881766	433	0	10
6.6.1	mac	0	2023-09-15	20:14:08	1	1	1	experiment	1	dispFeedback_noU	2	750	1000	210	240			76	dynamic	POS	1	32	0.6999999999999999556	22.3999999999999985789	1	10	0.9755506399030682285	5	25	2		30pct	0	25	5		0	0	0	0	0	0	2	0	0	0	0	0	0	0	3	0	3	0	0	0	0	0	0	0	0	0	0	0	1	45	25	6	cloud	wind	6	12	27	35	0	0	0	19	584	42.048000000000001819	434	0	10
6.6.1	mac	0	2023-09-15	20:14:08	1	1	1	experiment	1	experiment_U	2	750	3462	250	380			53	dynamic	POS	1					10		5	25	2	180	30pct	0	25	5		0	0	0	0	0	0	2	0	0	0	0	0	0	0	3	0	3	0	0	1	0	0	0	0	0	0	0	0	1	45	27	7	cloud	wind	6	12	27	35	0	0	3	20	584	42.048000000000001819	434	0	10
6.6.1	mac	0	2023-09-15	20:14:08	1	1	1	experiment	1	dispFeedback_U	2	750	1000	250	380			53	dynamic	POS	1	154	0.6999999999999999556	107.7999999999999971578	154	176	0.1817628129342949983	5	25	2	180	30pct	0	25	5		0	0	1	0	0	0	2	0	0	0	1	1	0	0	3	0	3	0	1	1	0	0	0	0	0	0	1	0	1	45	27	7	cloud	wind	6	12	27	35	0	0	3	20	2362	170.0639999999999929514	588	0	176
6.6.1	mac	0	2023-09-15	20:14:08	1	1	1	experiment	1	experiment_U	2	750	4758	290	130			29	dynamic	POS	1					176		5	25	2	180	30pct	0	25	5		0	0	1	0	0	0	2	0	0	0	1	0	0	0	3	0	3	0	1	2	0	0	0	0	0	0	0	0	1	45	29	8	cloud	wind	6	12	27	35	0	0	3	21	2362	170.0639999999999929514	588	0	176
6.6.1	mac	0	2023-09-15	20:14:08	1	1	1	experiment	1	dispFeedback_U	2	750	1000	290	130			29	dynamic	POS	1	161	0.6999999999999999556	112.6999999999999886313	161	155	0.4849886625271729867	5	25	2	180	30pct	0	25	5		0	0	1	0	0	0	2	0	0	0	2	1	0	0	3	0	3	0	2	2	0	0	0	0	0	0	1	0	1	45	29	8	cloud	wind	6	12	27	35	0	0	3	21	2458	176.9759999999999990905	749	0	155
6.6.1	mac	0	2023-09-15	20:14:08	1	1	1	experiment	1	experiment_noU	2	750	2734	400	500			71	dynamic	POS	1					155		5	25	2		30pct	0	25	5		0	0	1	0	0	0	2	0	0	0	2	0	0	0	3	0	3	0	2	0	0	0	0	0	0	0	0	0	1	45	30	8	cloud	wind	6	12	27	35	0	0	0	22	2458	176.9759999999999990905	749	0	155
6.6.1	mac	0	2023-09-15	20:14:08	1	1	1	experiment	1	dispFeedback_noU	2	750	1000	400	500			71	dynamic	POS	1	163	0.6999999999999999556	114.0999999999999943157	163	165	0.2464895898584485157	5	25	2		30pct	0	25	5		0	0	1	0	0	0	2	0	0	0	2	0	0	0	3	0	3	0	2	0	0	0	0	0	0	0	0	0	1	45	30	8	cloud	wind	6	12	27	35	0	0	0	22	2534	182.4480000000000075033	912	0	165
6.6.1	mac	0	2023-09-15	20:14:08	1	1	1	experiment	1	experiment_noU	2	750	457	580	400			84	dynamic	POS	1					165		5	25	2		30pct	0	25	5		0	0	1	0	0	0	2	0	0	0	2	0	0	0	3	0	3	0	2	0	0	0	0	0	0	0	0	0	1	45	31	8	cloud	wind	6	12	27	35	0	0	0	23	2534	182.4480000000000075033	912	0	165
6.6.1	mac	0	2023-09-15	20:14:08	1	1	1	experiment	1	dispFeedback_noU	2	750	1000	580	400			84	dynamic	POS	1	12	0.6999999999999999556	8.3999999999999985789	1	10	0.8492382205671720197	5	25	2		30pct	0	25	5		0	0	1	0	0	0	2	0	0	0	2	0	0	0	3	0	3	0	2	0	0	0	0	0	0	0	0	0	1	45	31	8	cloud	wind	6	12	27	35	0	0	0	23	907	65.3040000000000020464	913	0	10
6.6.1	mac	0	2023-09-15	20:14:08	1	1	1	experiment	1	experiment_noU	2	750	377	340	250			0	dynamic	POS	1					10		5	25	2		30pct	0	25	5		0	0	1	0	0	0	2	0	0	0	2	0	0	0	3	0	3	0	2	0	0	0	0	0	0	0	0	0	1	45	32	8	cloud	wind	6	12	27	35	0	0	0	24	907	65.3040000000000020464	913	0	10
6.6.1	mac	0	2023-09-15	20:14:08	1	1	1	experiment	1	dispFeedback_noU	2	750	1000	340	250			0	dynamic	POS	1	31	0.6999999999999999556	21.6999999999999992895	31	34	0.6726679035165971099	5	25	2		30pct	0	25	5		0	0	1	0	0	0	2	0	0	0	2	0	0	0	3	0	3	0	2	0	0	0	0	0	0	0	0	0	1	45	32	8	cloud	wind	6	12	27	35	0	0	0	24	1627	117.144000000000005457	944	0	34
6.6.1	mac	0	2023-09-15	20:14:08	1	1	1	experiment	1	experiment_noU	2	750	284	350	320			57	dynamic	POS	1					34		5	25	2		30pct	0	25	5		0	0	1	0	0	0	2	0	0	0	2	0	0	0	3	0	3	0	2	0	0	0	0	0	0	0	0	0	1	45	33	8	cloud	wind	6	12	27	35	0	0	0	25	1627	117.144000000000005457	944	0	34
6.6.1	mac	0	2023-09-15	20:14:08	1	1	1	experiment	1	dispFeedback_noU	2	750	1000	350	320			57	dynamic	POS	1	8	0.6999999999999999556	5.5999999999999996447	8	10	0.2780303785759095092	5	25	2		30pct	0	25	5		0	0	1	0	0	0	2	0	0	0	2	0	0	0	3	0	3	0	2	0	0	0	0	0	0	0	0	0	1	45	33	8	cloud	wind	6	12	27	35	0	0	0	25	4384	315.6480000000000245564	952	0	10
6.6.1	mac	0	2023-09-15	20:14:08	1	1	1	experiment	1	experiment_U	2	750	2524	280	310			75	dynamic	POS	1					10		5	25	2		30pct	0	25	5	180	0	0	1	0	0	0	2	0	0	0	2	0	0	0	3	0	3	0	2	0	0	1	0	0	0	0	0	0	1	45	35	9	cloud	wind	6	12	27	35	0	0	4	26	4384	315.6480000000000245564	952	0	10
6.6.1	mac	0	2023-09-15	20:14:08	1	1	1	experiment	1	dispFeedback_U	2	750	1000	280	310			75	dynamic	POS	1	133	0.6999999999999999556	93.0999999999999943157	1	10	0.8902914668177933644	5	25	2		30pct	0	25	5	180	0	0	0	1	0	0	2	0	0	0	2	0	1	1	3	0	3	0	2	0	1	1	0	0	0	0	0	1	1	45	35	9	cloud	wind	6	12	27	35	0	0	4	26	2524	181.7280000000000086402	953	0	10
6.6.1	mac	0	2023-09-15	20:14:08	1	1	1	experiment	1	experiment_U	2	750	3076	240	330			66	dynamic	POS	1					10		5	25	2		30pct	0	25	5	180	0	0	0	1	0	0	2	0	0	0	2	0	1	0	3	0	3	0	2	0	1	2	0	0	0	0	0	0	1	45	37	10	cloud	wind	6	12	27	35	0	0	4	27	2524	181.7280000000000086402	953	0	10
6.6.1	mac	0	2023-09-15	20:14:08	1	1	1	experiment	1	dispFeedback_U	2	750	1000	240	330			66	dynamic	POS	1	142	0.6999999999999999556	99.3999999999999914735	1	10	0.7073300435923343121	5	25	2		30pct	0	25	5	180	0	0	0	1	0	0	2	0	0	0	2	0	2	1	3	0	3	0	2	0	2	2	0	0	0	0	0	1	1	45	37	10	cloud	wind	6	12	27	35	0	0	4	27	2626	189.0720000000000027285	954	0	10
6.6.1	mac	0	2023-09-15	20:14:08	1	1	1	experiment	1	experiment_noU	2	750	415	330	290			22	dynamic	POS	1					10		5	25	2		30pct	0	25	5		0	0	0	1	0	0	2	0	0	0	2	0	2	0	3	0	3	0	2	0	2	0	0	0	0	0	0	0	1	45	38	10	cloud	wind	6	12	27	35	0	0	0	28	2626	189.0720000000000027285	954	0	10
6.6.1	mac	0	2023-09-15	20:14:08	1	1	1	experiment	1	dispFeedback_noU	2	750	1000	330	290			22	dynamic	POS	1	133	0.6999999999999999556	93.0999999999999943157	133	124	0.1116035769487739443	5	25	2		30pct	0	25	5		0	0	0	1	0	0	2	0	0	0	2	0	2	0	3	0	3	0	2	0	2	0	0	0	0	0	0	0	1	45	38	10	cloud	wind	6	12	27	35	0	0	0	28	2765	199.0800000000000125056	1087	0	124
6.6.1	mac	0	2023-09-15	20:14:08	1	1	1	experiment	1	experiment_noU	2	750	446	550	110			62	dynamic	POS	1					124		5	25	2		30pct	0	25	5		0	0	0	1	0	0	2	0	0	0	2	0	2	0	3	0	3	0	2	0	2	0	0	0	0	0	0	0	1	45	39	10	cloud	wind	6	12	27	35	0	0	0	29	2765	199.0800000000000125056	1087	0	124
6.6.1	mac	0	2023-09-15	20:14:08	1	1	1	experiment	1	dispFeedback_noU	2	750	1000	550	110			62	dynamic	POS	1	22	0.6999999999999999556	15.3999999999999985789	22	21	0.4974536743241952941	5	25	2		30pct	0	25	5		0	0	0	1	0	0	2	0	0	0	2	0	2	0	3	0	3	0	2	0	2	0	0	0	0	0	0	0	1	45	39	10	cloud	wind	6	12	27	35	0	0	0	29	4796	345.3120000000000118234	1109	0	21
6.6.1	mac	0	2023-09-15	20:14:08	1	1	1	experiment	1	experiment_noU	2	750	395	310	270			58	dynamic	POS	1					21		5	25	2		30pct	0	25	5		0	0	0	1	0	0	2	0	0	0	2	0	2	0	3	0	3	0	2	0	2	0	0	0	0	0	0	0	1	45	40	10	cloud	wind	6	12	27	35	0	0	0	30	4796	345.3120000000000118234	1109	0	21
6.6.1	mac	0	2023-09-15	20:14:08	1	1	1	experiment	1	dispFeedback_noU	2	750	1000	310	270			58	dynamic	POS	1	19	0.6999999999999999556	13.2999999999999989342	19	19	0.2674366993055298791	5	25	2		30pct	0	25	5		0	0	0	1	0	0	2	0	0	0	2	0	2	0	3	0	3	0	2	0	2	0	0	0	0	0	0	0	1	45	40	10	cloud	wind	6	12	27	35	0	0	0	30	4545	327.2400000000000090949	1128	0	19
6.6.1	mac	0	2023-09-15	20:14:08	1	1	1	experiment	1	experiment_noU	2	750	629	450	230			96	dynamic	POS	1					19		5	25	2		30pct	0	25	5		0	0	0	1	0	0	2	0	0	0	2	0	2	0	3	0	3	0	2	0	2	0	0	0	0	0	0	0	1	45	41	10	cloud	wind	6	12	27	35	0	0	0	31	4545	327.2400000000000090949	1128	0	19
6.6.1	mac	0	2023-09-15	20:14:08	1	1	1	experiment	1	dispFeedback_noU	2	750	1000	450	230			96	dynamic	POS	1	24	0.6999999999999999556	16.7999999999999971578	24	22	0.1576872412482479557	5	25	2		30pct	0	25	5		0	0	0	1	0	0	2	0	0	0	2	0	2	0	3	0	3	0	2	0	2	0	0	0	0	0	0	0	1	45	41	10	cloud	wind	6	12	27	35	0	0	0	31	1679	120.8880000000000052296	1152	0	22
6.6.1	mac	0	2023-09-15	20:14:08	1	1	1	experiment	1	experiment_noU	2	750	564	390	150			50	dynamic	POS	1					22		5	25	2		30pct	0	25	5		0	0	0	1	0	0	2	0	0	0	2	0	2	0	3	0	3	0	2	0	2	0	0	0	0	0	0	0	1	45	42	10	cloud	wind	6	12	27	35	0	0	0	32	1679	120.8880000000000052296	1152	0	22
6.6.1	mac	0	2023-09-15	20:14:08	1	1	1	experiment	1	dispFeedback_noU	2	750	1000	390	150			50	dynamic	POS	1	26	0.6999999999999999556	18.1999999999999992895	26	26	0.2016764935575603712	5	25	2		30pct	0	25	5		0	0	0	1	0	0	2	0	0	0	2	0	2	0	3	0	3	0	2	0	2	0	0	0	0	0	0	0	1	45	42	10	cloud	wind	6	12	27	35	0	0	0	32	4314	310.6080000000000040927	1178	0	26
6.6.1	mac	0	2023-09-15	20:14:08	1	1	1	experiment	1	experiment_noU	2	750	430	490	210			49	dynamic	POS	1					26		5	25	2		30pct	0	25	5		0	0	0	1	0	0	2	0	0	0	2	0	2	0	3	0	3	0	2	0	2	0	0	0	0	0	0	0	1	45	43	10	cloud	wind	6	12	27	35	0	0	0	33	4314	310.6080000000000040927	1178	0	26
6.6.1	mac	0	2023-09-15	20:14:08	1	1	1	experiment	1	dispFeedback_noU	2	750	1000	490	210			49	dynamic	POS	1	30	0.6999999999999999556	21	30	26	0.5977893603494831565	5	25	2		30pct	0	25	5		0	0	0	1	0	0	2	0	0	0	2	0	2	0	3	0	3	0	2	0	2	0	0	0	0	0	0	0	1	45	43	10	cloud	wind	6	12	27	35	0	0	0	33	4130	297.3600000000000136424	1208	0	26
6.6.1	mac	0	2023-09-15	20:14:08	1	1	1	experiment	1	experiment_noU	2	750	958	430	430			41	dynamic	POS	1					26		5	25	2		30pct	0	25	5		0	0	0	1	0	0	2	0	0	0	2	0	2	0	3	0	3	0	2	0	2	0	0	0	0	0	0	0	1	45	44	10	cloud	wind	6	12	27	35	0	0	0	34	4130	297.3600000000000136424	1208	0	26
6.6.1	mac	0	2023-09-15	20:14:08	1	1	1	experiment	1	dispFeedback_noU	2	750	1000	430	430			41	dynamic	POS	1	32	0.6999999999999999556	22.3999999999999985789	1	10	0.7001943852985730299	5	25	2		30pct	0	25	5		0	0	0	1	0	0	2	0	0	0	2	0	2	0	3	0	3	0	2	0	2	0	0	0	0	0	0	0	1	45	44	10	cloud	wind	6	12	27	35	0	0	0	34	4258	306.5760000000000218279	1209	0	10
6.6.1	mac	0	2023-09-15	20:14:08	1	1	1	experiment	1	experiment_noU	2	750	411	570	370			68	dynamic	POS	1					10		5	25	2		30pct	0	25	5		0	0	0	1	0	0	2	0	0	0	2	0	2	0	3	0	3	0	2	0	2	0	0	0	0	0	0	0	1	45	45	10	cloud	wind	6	12	27	35	0	0	0	35	4258	306.5760000000000218279	1209	0	10
6.6.1	mac	0	2023-09-15	20:14:08	1	1	1	experiment	1	dispFeedback_noU	2	750	1000	570	370			68	dynamic	POS	1	39	0.6999999999999999556	27.2999999999999971578	39	43	0.2244028444924398291	5	25	2		30pct	0	25	5		0	0	0	1	0	0	2	0	0	0	2	0	2	0	3	0	3	0	2	0	2	0	0	0	0	0	0	0	1	45	45	10	cloud	wind	6	12	27	35	0	0	0	35	61	4.3920000000000003482	1248	0	43
6.6.1	mac	0	2023-09-15	20:14:08	1	1	1	experiment	2	experiment_noU	2	750	618	370	300			74	dynamic	POS	1					43		50	30	45		30pct	20	30	1		0	0	0	1	0	0	0	0	0	0	0	0	0	0	0	0	0	0	0	0	0	0	0	0	0	0	0	0	2	45	1	10	cloud	wind	5	15	26	36	0	0	0	37	61	4.3920000000000003482	1248	0	43
6.6.1	mac	0	2023-09-15	20:14:08	1	1	1	experiment	2	dispFeedback_noU	2	750	1000	370	300			74	dynamic	POS	1	48	0.6999999999999999556	33.5999999999999943157	48	44	0.6373666801111229629	50	30	45		30pct	20	30	1		0	0	0	1	0	0	0	0	0	0	0	0	0	0	0	0	0	0	0	0	0	0	0	0	0	0	0	0	2	45	1	10	cloud	wind	5	15	26	36	0	0	0	37	568	40.8960000000000007958	1296	0	44
6.6.1	mac	0	2023-09-15	20:14:08	1	1	1	experiment	2	experiment_noU	2	750	328	320	120			46	dynamic	POS	1					44		50	30	45		30pct	20	30	1		0	0	0	1	0	0	0	0	0	0	0	0	0	0	0	0	0	0	0	0	0	0	0	0	0	0	0	0	2	45	2	10	cloud	wind	5	15	26	36	0	0	0	38	568	40.8960000000000007958	1296	0	44
6.6.1	mac	0	2023-09-15	20:14:08	1	1	1	experiment	2	dispFeedback_noU	2	750	1000	320	120			46	dynamic	POS	1	57	0.6999999999999999556	39.8999999999999985789	1	10	0.797176979667781116	50	30	45		30pct	20	30	1		0	0	0	1	0	0	0	0	0	0	0	0	0	0	0	0	0	0	0	0	0	0	0	0	0	0	0	0	2	45	2	10	cloud	wind	5	15	26	36	0	0	0	38	3878	279.2160000000000081855	1297	0	10
6.6.1	mac	0	2023-09-15	20:14:08	1	1	1	experiment	2	experiment_noU	2	750	788	270	190			17	dynamic	POS	1					10		50	30	45		30pct	20	30	1		0	0	0	1	0	0	0	0	0	0	0	0	0	0	0	0	0	0	0	0	0	0	0	0	0	0	0	0	2	45	3	10	cloud	wind	5	15	26	36	0	0	0	39	3878	279.2160000000000081855	1297	0	10
6.6.1	mac	0	2023-09-15	20:14:08	1	1	1	experiment	2	dispFeedback_noU	2	750	1000	270	190			17	dynamic	POS	1	42	0.6999999999999999556	29.3999999999999985789	42	42	0.0739019490019190012	50	30	45		30pct	20	30	1		0	0	0	1	0	0	0	0	0	0	0	0	0	0	0	0	0	0	0	0	0	0	0	0	0	0	0	0	2	45	3	10	cloud	wind	5	15	26	36	0	0	0	39	2888	207.9360000000000070486	1339	0	42
6.6.1	mac	0	2023-09-15	20:14:08	1	1	1	experiment	2	experiment_U	2	750	423	590	160			76	dynamic	POS	1					42		50	30	45	30	30pct	20	30	1		0	0	0	1	0	0	0	0	0	0	0	0	0	0	0	1	0	0	0	0	0	0	0	0	0	0	0	0	2	45	5	11	cloud	wind	5	15	26	36	0	0	1	40	2888	207.9360000000000070486	1339	0	42
6.6.1	mac	0	2023-09-15	20:14:08	1	1	1	experiment	2	dispFeedback_U	2	750	1000	590	160			76	dynamic	POS	1	41	0.6999999999999999556	28.6999999999999992895	41	43	0.0738742475104225416	50	30	45	30	30pct	20	30	1		1	0	0	0	0	0	1	1	0	0	0	0	0	0	1	1	0	0	0	0	0	0	0	0	0	0	1	0	2	45	5	11	cloud	wind	5	15	26	36	0	0	1	40	473	34.0559999999999973852	1380	0	43
6.6.1	mac	0	2023-09-15	20:14:08	1	1	1	experiment	2	experiment_U	2	750	3631	470	460			10	dynamic	POS	1					43		50	30	45	30	30pct	20	30	1		1	0	0	0	0	0	1	0	0	0	0	0	0	0	1	2	0	0	0	0	0	0	0	0	0	0	0	0	2	45	7	12	cloud	wind	5	15	26	36	0	0	1	41	473	34.0559999999999973852	1380	0	43
6.6.1	mac	0	2023-09-15	20:14:08	1	1	1	experiment	2	dispFeedback_U	2	750	1000	470	460			10	dynamic	POS	1	42	0.6999999999999999556	29.3999999999999985789	42	45	0.5197396656777103496	50	30	45	30	30pct	20	30	1		1	0	0	0	0	0	2	1	0	0	0	0	0	0	2	2	0	0	0	0	0	0	0	0	0	0	1	0	2	45	7	12	cloud	wind	5	15	26	36	0	0	1	41	381	27.4319999999999986073	1422	0	45
6.6.1	mac	0	2023-09-15	20:14:08	1	1	1	experiment	2	experiment_noU	2	750	536	220	350			57	dynamic	POS	1					45		50	30	45		30pct	20	30	1		0	0	0	0	0	0	2	0	0	0	0	0	0	0	2	0	0	0	0	0	0	0	0	0	0	0	0	0	2	45	8	12	cloud	wind	5	12	26	36	0	0	0	42	381	27.4319999999999986073	1422	0	45
6.6.1	mac	0	2023-09-15	20:14:08	1	1	1	experiment	2	dispFeedback_noU	2	750	1000	220	350			57	dynamic	POS	1	81	0.6999999999999999556	56.6999999999999957367	81	69	0.3448771958576695162	50	30	45		30pct	20	30	1		0	0	0	0	0	0	2	0	0	0	0	0	0	0	2	0	0	0	0	0	0	0	0	0	0	0	0	0	2	45	8	12	cloud	wind	5	12	26	36	0	0	0	42	4636	333.7919999999999731699	1503	0	69
6.6.1	mac	0	2023-09-15	20:14:08	1	1	1	experiment	2	experiment_noU	2	750	347	240	100			65	dynamic	POS	1					69		50	30	45		30pct	20	30	1		0	0	0	0	0	0	2	0	0	0	0	0	0	0	2	0	0	0	0	0	0	0	0	0	0	0	0	0	2	45	9	12	cloud	wind	5	12	26	36	0	0	0	43	4636	333.7919999999999731699	1503	0	69
6.6.1	mac	0	2023-09-15	20:14:08	1	1	1	experiment	2	dispFeedback_noU	2	750	1000	240	100			65	dynamic	POS	1	79	0.6999999999999999556	55.2999999999999971578	79	87	0.4993156724375010791	50	30	45		30pct	20	30	1		0	0	0	0	0	0	2	0	0	0	0	0	0	0	2	0	0	0	0	0	0	0	0	0	0	0	0	0	2	45	9	12	cloud	wind	5	12	26	36	0	0	0	43	4847	348.9839999999999804459	1582	0	87
6.6.1	mac	0	2023-09-15	20:14:08	1	1	1	experiment	2	experiment_noU	2	750	345	590	410			24	dynamic	POS	1					87		50	30	45		30pct	20	30	1		0	0	0	0	0	0	2	0	0	0	0	0	0	0	2	0	0	0	0	0	0	0	0	0	0	0	0	0	2	45	10	12	cloud	wind	5	12	26	36	0	0	0	44	4847	348.9839999999999804459	1582	0	87
6.6.1	mac	0	2023-09-15	20:14:08	1	1	1	experiment	2	dispFeedback_noU	2	750	1000	590	410			24	dynamic	POS	1	32	0.6999999999999999556	22.3999999999999985789	32	30	0.0001044645905737916	50	30	45		30pct	20	30	1		0	0	0	0	0	0	2	0	0	0	0	0	0	0	2	0	0	0	0	0	0	0	0	0	0	0	0	0	2	45	10	12	cloud	wind	5	12	26	36	0	0	0	44	2795	201.2400000000000090949	1614	0	30
6.6.1	mac	0	2023-09-15	20:14:08	1	1	1	experiment	2	experiment_U	2	750	1059	290	110			12	dynamic	POS	1					30		50	30	45		30pct	20	30	1	210	0	0	0	0	0	0	2	0	0	0	0	0	0	0	2	0	0	1	0	0	0	0	0	0	0	0	0	0	2	45	12	13	cloud	wind	5	12	26	36	0	0	2	45	2795	201.2400000000000090949	1614	0	30
6.6.1	mac	0	2023-09-15	20:14:08	1	1	1	experiment	2	dispFeedback_U	2	750	1000	290	110			12	dynamic	POS	1	27	0.6999999999999999556	18.8999999999999985789	27	23	0.2278385640186812999	50	30	45		30pct	0	30	1	210	0	0	0	0	0	0	2	0	0	0	0	0	0	0	2	0	1	1	0	0	0	0	0	0	0	0	0	0	2	45	12	13	cloud	wind	5	12	26	36	0	0	2	45	2909	209.4480000000000075033	1641	0	23
6.6.1	mac	0	2023-09-15	20:14:08	1	1	1	experiment	2	experiment_U	2	750	2966	450	270			75	dynamic	POS	1					23		50	30	45		30pct	0	30	1	210	0	0	0	0	0	0	2	0	0	0	0	0	0	0	2	0	1	2	0	0	0	0	0	0	0	0	0	0	2	45	14	14	cloud	wind	5	12	26	36	0	0	2	46	2909	209.4480000000000075033	1641	0	23
6.6.1	mac	0	2023-09-15	20:14:08	1	1	1	experiment	2	dispFeedback_U	2	750	1000	450	270			75	dynamic	POS	1	23	0.6999999999999999556	16.0999999999999978684	1	10	0.7681340781897618708	50	30	45		30pct	0	30	1	210	0	0	0	0	0	0	2	0	0	0	0	0	0	0	2	0	2	2	0	0	0	0	0	0	0	0	0	0	2	45	14	14	cloud	wind	5	12	26	36	0	0	2	46	2966	213.5519999999999924967	1642	0	10
6.6.1	mac	0	2023-09-15	20:14:08	1	1	1	experiment	2	experiment_U	2	750	1040	510	280			14	dynamic	POS	1					10		50	30	45		25pct	0	30	1	210	0	0	0	0	0	0	2	0	0	0	0	0	0	0	2	0	2	3	0	0	0	0	0	0	0	0	0	0	2	45	16	15	cloud	wind	5	12	26	36	0	0	2	47	2966	213.5519999999999924967	1642	0	10
6.6.1	mac	0	2023-09-15	20:14:08	1	1	1	experiment	2	dispFeedback_U	2	750	1000	510	280			14	dynamic	POS	1	19	0.6999999999999999556	13.2999999999999989342	19	19	0.307655013703660829	50	30	45		25pct	0	30	1	210	0	0	0	0	0	0	2	0	0	0	0	0	0	0	2	0	3	3	0	0	0	0	0	0	0	0	0	0	2	45	16	15	cloud	wind	5	12	26	36	0	0	2	47	2990	215.2800000000000011369	1661	0	19
6.6.1	mac	0	2023-09-15	20:14:08	1	1	1	experiment	2	experiment_U	2	750	2782	300	380			80	dynamic	POS	1					19		50	30	45		30pct	0	30	1	210	0	0	0	0	0	0	2	0	0	0	0	0	0	0	2	0	3	4	0	0	0	0	0	0	0	0	0	0	2	45	18	16	cloud	wind	5	12	26	36	0	0	2	48	2990	215.2800000000000011369	1661	0	19
6.6.1	mac	0	2023-09-15	20:14:08	1	1	1	experiment	2	dispFeedback_U	2	750	1000	300	380			80	dynamic	POS	1	17	0.6999999999999999556	11.8999999999999985789	17	17	0.0218222360177483012	50	30	45		30pct	0	30	1	210	0	0	0	0	0	0	2	0	0	0	0	0	0	0	2	0	4	4	0	0	0	0	0	0	0	0	0	0	2	45	18	16	cloud	wind	5	12	26	36	0	0	2	48	3032	218.3040000000000020464	1678	0	17
6.6.1	mac	0	2023-09-15	20:14:08	1	1	1	experiment	2	experiment_noU	2	750	1210	520	340			97	dynamic	POS	1					17		50	30	45		30pct	0	30	1		0	0	0	0	0	0	2	0	0	0	0	0	0	0	2	0	4	0	0	0	0	0	0	0	0	0	0	0	2	45	19	16	cloud	wind	5	12	26	36	0	0	0	49	3032	218.3040000000000020464	1678	0	17
6.6.1	mac	0	2023-09-15	20:14:08	1	1	1	experiment	2	dispFeedback_noU	2	750	1000	520	340			97	dynamic	POS	1	43	0.6999999999999999556	30.0999999999999978684	43	44	0.0232448047081112857	50	30	45		30pct	0	30	1		0	0	0	0	0	0	2	0	0	0	0	0	0	0	2	0	4	0	0	0	0	0	0	0	0	0	0	0	2	45	19	16	cloud	wind	5	12	26	36	0	0	0	49	2310	166.3199999999999931788	1721	0	44
6.6.1	mac	0	2023-09-15	20:14:08	1	1	1	experiment	2	experiment_noU	2	750	764	200	120			71	dynamic	POS	1					44		50	30	45		30pct	0	30	1		0	0	0	0	0	0	2	0	0	0	0	0	0	0	2	0	4	0	0	0	0	0	0	0	0	0	0	0	2	45	20	16	cloud	wind	5	12	26	36	0	0	0	50	2310	166.3199999999999931788	1721	0	44
6.6.1	mac	0	2023-09-15	20:14:08	1	1	1	experiment	2	dispFeedback_noU	2	750	1000	200	120			71	dynamic	POS	1	34	0.6999999999999999556	23.7999999999999971578	34	35	0.3661044718153086408	50	30	45		30pct	0	30	1		0	0	0	0	0	0	2	0	0	0	0	0	0	0	2	0	4	0	0	0	0	0	0	0	0	0	0	0	2	45	20	16	cloud	wind	5	12	26	36	0	0	0	50	564	40.6079999999999969873	1755	0	35
6.6.1	mac	0	2023-09-15	20:14:08	1	1	1	experiment	2	experiment_noU	2	750	395	360	400			60	dynamic	POS	1					35		50	30	45		30pct	0	30	1		0	0	0	0	0	0	2	0	0	0	0	0	0	0	2	0	4	0	0	0	0	0	0	0	0	0	0	0	2	45	21	16	cloud	wind	5	12	26	36	0	0	0	51	564	40.6079999999999969873	1755	0	35
6.6.1	mac	0	2023-09-15	20:14:08	1	1	1	experiment	2	dispFeedback_noU	2	750	1000	360	400			60	dynamic	POS	1	158	0.6999999999999999556	110.5999999999999943157	1	10	0.976688318880435169	50	30	45		30pct	0	30	1		0	0	0	0	0	0	2	0	0	0	0	0	0	0	2	0	4	0	0	0	0	0	0	0	0	0	0	0	2	45	21	16	cloud	wind	5	12	26	36	0	0	0	51	4645	334.4399999999999977263	1756	0	10
6.6.1	mac	0	2023-09-15	20:14:08	1	1	1	experiment	2	experiment_noU	2	750	462	280	450			92	dynamic	POS	1					10		50	30	45		30pct	0	30	1		0	0	0	0	0	0	2	0	0	0	0	0	0	0	2	0	4	0	0	0	0	0	0	0	0	0	0	0	2	45	22	16	cloud	wind	5	12	26	36	0	0	0	52	4645	334.4399999999999977263	1756	0	10
6.6.1	mac	0	2023-09-15	20:14:08	1	1	1	experiment	2	dispFeedback_noU	2	750	1000	280	450			92	dynamic	POS	1	5	0.6999999999999999556	3.5	5	10	0.2455403698248649902	50	30	45		30pct	0	30	1		0	0	0	0	0	0	2	0	0	0	0	0	0	0	2	0	4	0	0	0	0	0	0	0	0	0	0	0	2	45	22	16	cloud	wind	5	12	26	36	0	0	0	52	1312	94.4639999999999986358	1761	0	10
6.6.1	mac	0	2023-09-15	20:14:08	1	1	1	experiment	2	experiment_noU	2	750	420	490	350			42	dynamic	POS	1					10		50	30	45		30pct	0	30	1		0	0	0	0	0	0	2	0	0	0	0	0	0	0	2	0	4	0	0	0	0	0	0	0	0	0	0	0	2	45	23	16	cloud	wind	5	12	26	36	0	0	0	53	1312	94.4639999999999986358	1761	0	10
6.6.1	mac	0	2023-09-15	20:14:08	1	1	1	experiment	2	dispFeedback_noU	2	750	1000	490	350			42	dynamic	POS	1	11	0.6999999999999999556	7.6999999999999992895	11	11	0.0480978870876361334	50	30	45		30pct	0	30	1		0	0	0	0	0	0	2	0	0	0	0	0	0	0	2	0	4	0	0	0	0	0	0	0	0	0	0	0	2	45	23	16	cloud	wind	5	12	26	36	0	0	0	53	3770	271.4399999999999977263	1772	0	11
6.6.1	mac	0	2023-09-15	20:14:08	1	1	1	experiment	2	experiment_noU	2	750	463	440	470			49	dynamic	POS	1					11		50	30	45		30pct	0	30	1		0	0	0	0	0	0	2	0	0	0	0	0	0	0	2	0	4	0	0	0	0	0	0	0	0	0	0	0	2	45	24	16	cloud	wind	5	12	26	36	0	0	0	54	3770	271.4399999999999977263	1772	0	11
6.6.1	mac	0	2023-09-15	20:14:08	1	1	1	experiment	2	dispFeedback_noU	2	750	1000	440	470			49	dynamic	POS	1	76	0.6999999999999999556	53.1999999999999957367	76	82	0.5546114650914938382	50	30	45		30pct	0	30	1		0	0	0	0	0	0	2	0	0	0	0	0	0	0	2	0	4	0	0	0	0	0	0	0	0	0	0	0	2	45	24	16	cloud	wind	5	12	26	36	0	0	0	54	4163	299.7359999999999899956	1848	0	82
6.6.1	mac	0	2023-09-15	20:14:08	1	1	1	experiment	2	experiment_U	2	750	2490	560	300			53	dynamic	POS	1					82		50	30	45	150	30pct	0	30	1		0	0	0	0	0	0	2	0	0	0	0	0	0	0	2	0	4	0	0	1	0	0	0	0	0	0	0	0	2	45	26	17	cloud	wind	5	12	26	36	0	0	3	55	4163	299.7359999999999899956	1848	0	82
