build	computer.platform	computer.touch	date	time	subject	group	sessionid	blockcode	blocknum	trialcode	latency	randStart	startPos	scrfunc	rtvspos	randStart	circleproportion	mag	freq	ev	inc	rng	startPos	n_revolutions	totalPoints
6.6.1	mac	0	2023-01-13	13:33:19	1	1	1	instructions	1	instructions1	445	1	75	DEV	POS	1	0.3300000000000000155						75	0	0
6.6.1	mac	0	2023-01-13	13:33:19	1	1	1	instructions	1	instructions2	150	1	75	DEV	POS	1	0.3300000000000000155						75	0	0
6.6.1	mac	0	2023-01-13	13:33:19	1	1	1	instructions	1	instructions3	159	1	75	DEV	POS	1	0.3300000000000000155						75	0	0
6.6.1	mac	0	2023-01-13	13:33:19	1	1	1	experiment	2	experiment	618	1	29	DEV	POS	1	0.3300000000000000155						29	2513	0
6.6.1	mac	0	2023-01-13	13:33:19	1	1	1	experiment	2	dispFeedback	1000	1	29	DEV	POS	1	0.3300000000000000155	65	0.3332595607077407651	21.4988419854691024113	0	0.5072377376508055979	29	2513	0
6.6.1	mac	0	2023-01-13	13:33:19	1	1	1	experiment	2	experiment	530	1	87	DEV	POS	1	0.3300000000000000155						87	5073	0
6.6.1	mac	0	2023-01-13	13:33:19	1	1	1	experiment	2	dispFeedback	1000	1	87	DEV	POS	1	0.3300000000000000155	66	0.6182149871498019422	40.4997604514617819405	66	0.4096441316440804226	87	5073	66
6.6.1	mac	0	2023-01-13	13:33:19	1	1	1	experiment	2	experiment	779	1	29	DEV	POS	1	0.3300000000000000155						29	7872	66
6.6.1	mac	0	2023-01-13	13:33:19	1	1	1	experiment	2	dispFeedback	1000	1	29	DEV	POS	1	0.3300000000000000155	62	0.3207172745894300014	19.7275772083575873239	62	0.2381949192467599508	29	7872	128
6.6.1	mac	0	2023-01-13	13:33:19	1	1	1	experiment	2	experiment	458	1	52	DEV	POS	1	0.3300000000000000155						52	10352	128
6.6.1	mac	0	2023-01-13	13:33:19	1	1	1	experiment	2	dispFeedback	1000	1	52	DEV	POS	1	0.3300000000000000155	66	0.2546042234367194013	16.679327213752895176	0	0.819238571175196828	52	10352	128
6.6.1	mac	0	2023-01-13	13:33:19	1	1	1	experiment	2	experiment	2712	1	12	DEV	POS	1	0.3300000000000000155						12	15087	128
6.6.1	mac	0	2023-01-13	13:33:19	1	1	1	experiment	2	dispFeedback	1000	1	12	DEV	POS	1	0.3300000000000000155	70	0.2314182504425699172	16.0860684982149741984	0	0.4376319084404110549	12	15087	128
6.6.1	mac	0	2023-01-13	13:33:19	1	1	1	experiment	3	experiment	1241	1	24	DEV	POS	1	0.3300000000000000155						24	18366	128
6.6.1	mac	0	2023-01-13	13:33:19	1	1	1	experiment	3	dispFeedback	1000	1	24	DEV	POS	1	0.3300000000000000155	69	0.30443042197506337	20.8567727738232200352	0	0.8077976787015325177	24	18366	128
6.6.1	mac	0	2023-01-13	13:33:19	1	1	1	experiment	3	experiment	1094	1	43	DEV	POS	1	0.3300000000000000155						43	21501	128
6.6.1	mac	0	2023-01-13	13:33:19	1	1	1	experiment	3	dispFeedback	1000	1	43	DEV	POS	1	0.3300000000000000155	63	0.2378372878370969001	14.8673999293853427162	0	0.335528731657082413	43	21501	128
6.6.1	mac	0	2023-01-13	13:33:19	1	1	1	experiment	3	experiment	360	1	62	DEV	POS	1	0.3300000000000000155						62	23901	128
6.6.1	mac	0	2023-01-13	13:33:19	1	1	1	experiment	3	dispFeedback	1000	1	62	DEV	POS	1	0.3300000000000000155	62	0.2168529584226017715	13.3387996814925084976	0	0.775013959448555001	62	23901	128
6.6.1	mac	0	2023-01-13	13:33:19	1	1	1	experiment	3	experiment	0	1	39	DEV	POS	1	0.3300000000000000155						39	25459	128
