build	computer.platform	computer.touch	date	time	subject	group	sessionid	blockcode	blocknum	trialcode	latency	randStart	startPos	scrfunc	rtvspos	randStart	mag	freq	ev	inc	rng	startPos	fogPos1	fogPos2	chooseUncertainty1	chooseUncertainty2	uncertaintyCount1	uncertaintyCount2	blockCount	ntrials	trialCount	uncertaintyStart1	uncertaintyStart2	rt_shifted	totalPoints	totalEarnings	Earnings
6.6.1	mac	0	2023-01-31	15:20:15	1	1	1	instructions	1	instructions1	652	1	75	IEV	POS	1						75	0	0	0	0	0	0	0	10	0	0	0		0	0	
6.6.1	mac	0	2023-01-31	15:20:15	1	1	1	instructions	1	displayGoodJob	950	1	75	IEV	POS	1						75	0	0	0	0	0	0	0	10	0	0	0		0	0	
6.6.1	mac	0	2023-01-31	15:20:15	1	1	1	instructions	1	feedback2_5	3000	1	75	IEV	POS	1						75	0	0	0	0	0	0	0	10	0	0	0		0	0	0
6.6.1	mac	0	2023-01-31	15:20:15	1	1	1	instructions	1	instructions3	2185	1	75	IEV	POS	1						75	0	0	0	0	0	0	0	10	0	0	0		0	0	0
6.6.1	mac	0	2023-01-31	15:20:15	1	1	1	instructions	1	instructions4	3014	1	75	IEV	POS	1						75	0	0	0	0	0	0	0	10	0	0	0		0	0	0
6.6.1	mac	0	2023-01-31	15:20:15	1	1	1	instructions	1	sampleResponse	3000	1	75	IEV	POS	1						75	0	0	0	0	0	0	0	10	0	0	0	3014	0	0	0
6.6.1	mac	0	2023-01-31	15:20:15	1	1	1	instructions	1	instructions5	1075	1	75	IEV	POS	1						75	0	0	0	0	0	0	0	10	0	0	0	3014	0	0	0
6.6.1	mac	0	2023-01-31	15:20:15	1	1	1	instructions	1	countdown	1000	1	75	IEV	POS	1						75	0	0	0	0	0	0	0	10	0	0	0	3014	0	0	0
6.6.1	mac	0	2023-01-31	15:20:15	1	1	1	experiment	2	experiment_noU	869	1	22	DEV	POS	1						22	1	35	0	0	0	0	1	32	0	5	27	3014	0	0	0
6.6.1	mac	0	2023-01-31	15:20:15	1	1	1	experiment	2	dispFeedback_noU	1000	1	22	DEV	POS	1	86	0.3411459563098171444	29.248461730068182618	86	0.1639361462239027345	22	1	35	0	0	0	0	1	32	1	5	27	3219	86	7	7
6.6.1	mac	0	2023-01-31	15:20:15	1	1	1	experiment	2	experiment_noU	756	1	91	DEV	POS	1						91	1	35	0	0	0	0	1	32	1	5	27	3219	86	7	7
6.6.1	mac	0	2023-01-31	15:20:15	1	1	1	experiment	2	dispFeedback_noU	1000	1	91	DEV	POS	1	81	0.5372251823049598585	43.6299298897581024903	81	0.180986537873043335	91	1	35	0	0	0	0	1	32	2	5	27	1556	167	14	7
6.6.1	mac	0	2023-01-31	15:20:15	1	1	1	experiment	2	experiment_noU	493	1	88	DEV	POS	1						88	1	35	0	0	0	0	1	32	2	5	27	1556	167	14	7
6.6.1	mac	0	2023-01-31	15:20:15	1	1	1	experiment	2	dispFeedback_noU	1000	1	88	DEV	POS	1	73	0.6155236219219590854	45.0510969133488359262	73	0.357900123195233788	88	1	35	0	0	0	0	1	32	3	5	27	1143	240	20	6
6.6.1	mac	0	2023-01-31	15:20:15	1	1	1	experiment	2	experiment_noU	575	1	40	DEV	POS	1						40	1	35	0	0	0	0	1	32	3	5	27	1143	240	20	6
6.6.1	mac	0	2023-01-31	15:20:15	1	1	1	experiment	2	dispFeedback_noU	1000	1	40	DEV	POS	1	82	0.2940819296094039359	24.1658086585183298212	82	0.0127283940121364764	40	1	35	0	0	0	0	1	32	4	5	27	3825	322	27	7
6.6.1	mac	0	2023-01-31	15:20:15	1	1	1	experiment	2	experiment_noU	2485	1	74	DEV	POS	1						74	1	35	0	0	0	0	1	32	4	5	27	3825	322	27	7
6.6.1	mac	0	2023-01-31	15:20:15	1	1	1	experiment	2	dispFeedback_noU	1000	1	74	DEV	POS	1	77	0.4142222460987886601	31.6895943166867475327	77	0.3063813439352394141	74	1	35	0	0	0	0	1	32	5	5	27	2435	399	34	7
6.6.1	mac	0	2023-01-31	15:20:15	1	1	1	experiment	2	experiment_U	2594	1	76	DEV	POS	1						76	1	35	0	0	0	0	1	32	5	5	27	2435	399	34	7
6.6.1	mac	0	2023-01-31	15:20:15	1	1	1	experiment	2	dispFeedback_U	1000	1	76	DEV	POS	1	85	0.3922483660533014893	33.3996462370146929288	85	0.200208291574429792	76	1	35	0	0	1	0	1	32	6	5	27	2644	484	41	7
6.6.1	mac	0	2023-01-31	15:20:15	1	1	1	experiment	2	experiment_U	2713	1	71	DEV	POS	1						71	1	35	0	0	1	0	1	32	6	5	27	2644	484	41	7
6.6.1	mac	0	2023-01-31	15:20:15	1	1	1	experiment	2	dispFeedback_U	1000	1	71	DEV	POS	1	85	0.4057545118152185992	34.387534031663847145	85	0.214769099190544599	71	1	35	0	0	2	0	1	32	7	5	27	2513	569	48	7
6.6.1	mac	0	2023-01-31	15:20:15	1	1	1	experiment	2	experiment_U	818	1	3	DEV	POS	1						3	1	35	0	0	2	0	1	32	7	5	27	2513	569	48	7
