build	computer.platform	computer.touch	date	time	subject	group	sessionid	blockcode	blocknum	trialcode	latency	randStart	startPos	scrfunc	rtvspos	randStart	circleproportion	mag	freq	ev	inc	rng	startPos	n_revolutions	totalPoints	totalEarnings	Earnings
6.6.1	mac	0	2023-01-19	12:07:41	1	1	1	experiment	1	experiment_noU	917	1	54	DEV	POS	1	0.3300000000000000155						54	2034	0	0	
6.6.1	mac	0	2023-01-19	12:07:41	1	1	1	experiment	1	dispFeedback_noU	1000	1	54	DEV	POS	1	0.3300000000000000155	68	0.2004424545487040465	13.5320311321158737172	0	0.3834364235828249812	54	2034	0	0	0
6.6.1	mac	0	2023-01-19	12:07:41	1	1	1	experiment	1	experiment_noU	593	1	71	DEV	POS	1	0.3300000000000000155						71	4658	0	0	0
6.6.1	mac	0	2023-01-19	12:07:41	1	1	1	experiment	1	dispFeedback_noU	1000	1	71	DEV	POS	1	0.3300000000000000155	69	0.7922916816653726713	54.2805395987610381781	69	0.407230177057727738	71	4658	69	7	7
6.6.1	mac	0	2023-01-19	12:07:41	1	1	1	experiment	1	experiment_U	1031	1	32	DEV	POS	1	0.3300000000000000155						32	7713	69	7	7
6.6.1	mac	0	2023-01-19	12:07:41	1	1	1	experiment	1	dispFeedback_U	1000	1	32	DEV	POS	1	0.3300000000000000155	64	0.2897118134339006779	18.3998300112981034715	0	0.8740298342597739856	32	7713	69	7	0
6.6.1	mac	0	2023-01-19	12:07:41	1	1	1	experiment	1	experiment_U	1085	1	85	DEV	POS	1	0.3300000000000000155						85	10817	69	7	0
6.6.1	mac	0	2023-01-19	12:07:41	1	1	1	experiment	1	dispFeedback_U	1000	1	85	DEV	POS	1	0.3300000000000000155	61	0.5322493309194293865	32.2068345966656863766	61	0.2389037113727311978	85	10817	130	14	7
6.6.1	mac	0	2023-01-19	12:07:41	1	1	1	experiment	1	experiment_U	447	1	19	DEV	POS	1	0.3300000000000000155						19	13296	130	14	7
6.6.1	mac	0	2023-01-19	12:07:41	1	1	1	experiment	1	dispFeedback_U	1000	1	19	DEV	POS	1	0.3300000000000000155	71	0.3919489499609396521	27.6366353341049304504	71	0.2799157277401340682	19	13296	201	21	7
6.6.1	mac	0	2023-01-19	12:07:41	1	1	1	experiment	1	experiment_U	396	1	36	DEV	POS	1	0.3300000000000000155						36	15711	201	21	7
6.6.1	mac	0	2023-01-19	12:07:41	1	1	1	experiment	1	dispFeedback_U	1000	1	36	DEV	POS	1	0.3300000000000000155	62	0.3232674193308846533	19.8844386600643474594	0	0.6388366279748354248	36	15711	201	21	0
6.6.1	mac	0	2023-01-19	12:07:41	1	1	1	experiment	1	experiment_U	428	1	7	DEV	POS	1	0.3300000000000000155						7	18159	201	21	0
6.6.1	mac	0	2023-01-19	12:07:41	1	1	1	experiment	1	dispFeedback_U	1000	1	7	DEV	POS	1	0.3300000000000000155	67	0.4643747045494913683	30.8859346552071301062	0	0.5684036832694904229	7	18159	201	21	0
6.6.1	mac	0	2023-01-19	12:07:41	1	1	1	experiment	1	experiment_U	857	1	44	DEV	POS	1	0.3300000000000000155						44	21038	201	21	0
6.6.1	mac	0	2023-01-19	12:07:41	1	1	1	experiment	1	dispFeedback_U	1000	1	44	DEV	POS	1	0.3300000000000000155	70	0.2546914811054142302	17.7038094581492373436	0	0.9359208892416024383	44	21038	201	21	0
6.6.1	mac	0	2023-01-19	12:07:41	1	1	1	experiment	2	experiment_noU	3077	1	84	IEV	POS	1	0.3300000000000000155						84	26158	201	21	0
6.6.1	mac	0	2023-01-19	12:07:41	1	1	1	experiment	2	dispFeedback_noU	1000	1	84	IEV	POS	1	0.3300000000000000155	117	1.0797591413188067921	126.6454840392148923911	117	0.1505726511009439494	84	26158	318	31	10
6.6.1	mac	0	2023-01-19	12:07:41	1	1	1	experiment	2	experiment_noU	424	1	59	IEV	POS	1	0.3300000000000000155						59	28621	318	31	10
6.6.1	mac	0	2023-01-19	12:07:41	1	1	1	experiment	2	dispFeedback_noU	1000	1	59	IEV	POS	1	0.3300000000000000155	241	0.9526626620494061948	229.171014353533536223	241	0.2423374939808476403	59	28621	559	41	10
6.6.1	mac	0	2023-01-19	12:07:41	1	1	1	experiment	2	experiment_U	869	1	52	IEV	POS	1	0.3300000000000000155						52	31516	559	41	10
6.6.1	mac	0	2023-01-19	12:07:41	1	1	1	experiment	2	dispFeedback_U	1000	1	52	IEV	POS	1	0.3300000000000000155	262	0.9395193699905569629	246.2761470297561743337	262	0.5163110318864488901	52	31516	821	51	10
6.6.1	mac	0	2023-01-19	12:07:41	1	1	1	experiment	2	experiment_U	321	1	70	IEV	POS	1	0.3300000000000000155						70	33868	821	51	10
6.6.1	mac	0	2023-01-19	12:07:41	1	1	1	experiment	2	dispFeedback_U	1000	1	70	IEV	POS	1	0.3300000000000000155	21	0.9100340596132336923	18.7909404641035742145	0	0.9684970702436979106	70	33868	821	51	0
6.6.1	mac	0	2023-01-19	12:07:41	1	1	1	experiment	2	experiment_noU	1635	1	36	IEV	POS	1	0.3300000000000000155						36	37531	821	51	0
6.6.1	mac	0	2023-01-19	12:07:41	1	1	1	experiment	2	dispFeedback_noU	1000	1	36	IEV	POS	1	0.3300000000000000155	260	0.9442419062884696013	245.7221775988671481628	260	0.3555933459092847637	36	37531	1081	61	10
6.6.1	mac	0	2023-01-19	12:07:41	1	1	1	experiment	2	experiment_noU	1729	1	36	IEV	POS	1	0.3300000000000000155						36	41291	1081	61	10
6.6.1	mac	0	2023-01-19	12:07:41	1	1	1	experiment	2	dispFeedback_noU	1000	1	36	IEV	POS	1	0.3300000000000000155	278	0.9311428324603586715	258.9085609871855808706	278	0.6562013513539455278	36	41291	1359	71	10
6.6.1	mac	0	2023-01-19	12:07:41	1	1	1	experiment	2	experiment_noU	2730	1	14	IEV	POS	1	0.3300000000000000155						14	46042	1359	71	10
6.6.1	mac	0	2023-01-19	12:07:41	1	1	1	experiment	2	dispFeedback_noU	1000	1	14	IEV	POS	1	0.3300000000000000155	252	0.9449347456157416447	238.352497585640833222	252	0.1035441840308588407	14	46042	1611	81	10
6.6.1	mac	0	2023-01-19	12:07:41	1	1	1	experiment	2	experiment_noU	0	1	0	IEV	POS	1	0.3300000000000000155						0	47763	1611	81	10
