build	computer.platform	computer.touch	date	time	subject	group	sessionid	blockcode	blocknum	trialcode	latency	randStart	startPos	scrfunc	rtvspos	randStart	mag	freq	ev	inc	rng	startPos	fogPos1	fogPos2	chooseUncertainty1	chooseUncertainty2	uncertaintyCount1	uncertaintyCount2	blockCount	ntrials	trialCount	uncertaintyStart1	uncertaintyStart2	uncertainty_block	rt_shifted	totalPoints	totalEarnings	Earnings
6.6.1	mac	0	2023-04-05	13:13:09	1	1	1	instructions	1	instructions1	520	1	75	IEV	POS	1						75	0	0	0	0	0	0	0	10	0	0	0	0		0	0	
6.6.1	mac	0	2023-04-05	13:13:09	1	1	1	instructions	1	displayGoodJob	811	1	75	IEV	POS	1						75	0	0	0	0	0	0	0	10	0	0	0	0		0	0	
6.6.1	mac	0	2023-04-05	13:13:09	1	1	1	instructions	1	feedback2_5	3000	1	75	IEV	POS	1						75	0	0	0	0	0	0	0	10	0	0	0	0		0	0	0
6.6.1	mac	0	2023-04-05	13:13:09	1	1	1	instructions	1	instructions3	3512	1	75	IEV	POS	1						75	0	0	0	0	0	0	0	10	0	0	0	0		0	0	0
6.6.1	mac	0	2023-04-05	13:13:09	1	1	1	instructions	1	instructions4	2874	1	75	IEV	POS	1						75	0	0	0	0	0	0	0	10	0	0	0	0		0	0	0
6.6.1	mac	0	2023-04-05	13:13:09	1	1	1	instructions	1	sampleResponse	3000	1	75	IEV	POS	1						75	0	0	0	0	0	0	0	10	0	0	0	0	2874	0	0	0
6.6.1	mac	0	2023-04-05	13:13:09	1	1	1	instructions	1	instructions5	3987	1	75	IEV	POS	1						75	0	0	0	0	0	0	0	10	0	0	0	0	2874	0	0	0
6.6.1	mac	0	2023-04-05	13:13:09	1	1	1	instructions	1	countdown	1000	1	75	IEV	POS	1						75	0	0	0	0	0	0	0	10	0	0	0	0	2874	0	0	0
6.6.1	mac	0	2023-04-05	13:13:09	1	1	1	experiment	2	experiment_noU	504	1	23	IEV	POS	1						23	45	15	0	0	0	0	1	33	0	8	30	0	2874	0	0	0
6.6.1	mac	0	2023-04-05	13:13:09	1	1	1	experiment	2	dispFeedback_noU	1000	1	23	IEV	POS	1	66	0.6025419800387032954	39.5474782381949481191	66	0.2445256626802789213	23	45	15	0	0	0	0	1	33	1	8	30	0	2904	66	2.5	2.5
6.6.1	mac	0	2023-04-05	13:13:09	1	1	1	experiment	2	experiment_noU	450	1	12	IEV	POS	1						12	45	15	0	0	0	0	1	33	1	8	30	0	2904	66	2.5	2.5
6.6.1	mac	0	2023-04-05	13:13:09	1	1	1	experiment	2	dispFeedback_noU	1000	1	12	IEV	POS	1	49	0.713159243044925395	35.2559716334689454698	49	0.1401977311214892552	12	45	15	0	0	0	0	1	33	2	8	30	0	2300	115	4.5	2
6.6.1	mac	0	2023-04-05	13:13:09	1	1	1	experiment	2	experiment_noU	430	1	90	IEV	POS	1						90	45	15	0	0	0	0	1	33	2	8	30	0	2300	115	4.5	2
6.6.1	mac	0	2023-04-05	13:13:09	1	1	1	experiment	2	dispFeedback_noU	1000	1	90	IEV	POS	1	30	0.8549179991992730265	25.460829682293685039	30	0.3213274447064212169	90	45	15	0	0	0	0	1	33	3	8	30	0	1180	145	5.5	1
6.6.1	mac	0	2023-04-05	13:13:09	1	1	1	experiment	2	experiment_noU	908	1	52	IEV	POS	1						52	45	15	0	0	0	0	1	33	3	8	30	0	1180	145	5.5	1
6.6.1	mac	0	2023-04-05	13:13:09	1	1	1	experiment	2	dispFeedback_noU	1000	1	52	IEV	POS	1	246	0.2286272649808187563	56.2146410097973756592	246	0.7664267939437242605	52	45	15	0	0	0	0	1	33	4	8	30	0	4758	391	10.5	5
6.6.1	mac	0	2023-04-05	13:13:09	1	1	1	experiment	2	experiment_noU	630	1	80	IEV	POS	1						80	45	15	0	0	0	0	1	33	4	8	30	0	4758	391	10.5	5
6.6.1	mac	0	2023-04-05	13:13:09	1	1	1	experiment	2	dispFeedback_noU	1000	1	80	IEV	POS	1	27	0.8759445176567935976	23.5805617131391400676	27	0.485497764191938963	80	45	15	0	0	0	0	1	33	5	8	30	0	880	418	11.5	1
6.6.1	mac	0	2023-04-05	13:13:09	1	1	1	experiment	2	experiment_noU	1165	1	63	IEV	POS	1						63	45	15	0	0	0	0	1	33	5	8	30	0	880	418	11.5	1
6.6.1	mac	0	2023-04-05	13:13:09	1	1	1	experiment	2	dispFeedback_noU	1000	1	63	IEV	POS	1	14	0.8904796636617463568	12.3725974978523982628	14	0.671740147441565072	63	45	15	0	0	0	0	1	33	6	8	30	0	565	432	12	0.5
6.6.1	mac	0	2023-04-05	13:13:09	1	1	1	experiment	2	experiment_noU	908	1	80	IEV	POS	1						80	45	15	0	0	0	0	1	33	6	8	30	0	565	432	12	0.5
6.6.1	mac	0	2023-04-05	13:13:09	1	1	1	experiment	2	dispFeedback_noU	1000	1	80	IEV	POS	1	28	0.8567075116290718828	24.3874239978757643144	28	0.0888386047652081068	80	45	15	0	0	0	0	1	33	7	8	30	0	1158	460	13	1
6.6.1	mac	0	2023-04-05	13:13:09	1	1	1	experiment	2	experiment_noU	1158	1	58	IEV	POS	1						58	45	15	0	0	0	0	1	33	7	8	30	0	1158	460	13	1
6.6.1	mac	0	2023-04-05	13:13:09	1	1	1	experiment	2	dispFeedback_noU	1000	1	58	IEV	POS	1	16	0.8971557183418963355	14.6158900532755513524	16	0.2425834097067321171	58	45	15	0	0	0	0	1	33	8	8	30	1	308	476	13.5	0.5
6.6.1	mac	0	2023-04-05	13:13:09	1	1	1	experiment	2	experiment_U	1272	1	19	IEV	POS	1						19	45	15	0	0	0	0	1	33	8	8	30	1	308	476	13.5	0.5
6.6.1	mac	0	2023-04-05	13:13:09	1	1	1	experiment	2	dispFeedback_U	863	1	19	IEV	POS	1	97	0.4867424443909270648	47.1199826859525430223	1	0.5649196374148408584	19	45	15	0	0	1	0	1	33	9	8	30	1	3472	477	14	0.5
