build	computer.platform	computer.touch	date	time	subject	group	sessionid	blockcode	blocknum	trialcode	latency	preClockFreezeBlock	list.preClockFreeze.currentvalue	list.ITI.currentvalue	list.ISI.currentvalue	trial.instructions5_1.response	trial.instructions5_2.response	startPos	scrfunc	rtvspos	randStart	mag	freq	ev	inc	rng	fogPos1	fogPos_out	windPos2	windPos_out	chooseFog1	chooseWind2	choose_unc_att1	choose_unc_att_out1	choose_unc_att2	choose_unc_att_out2	unc_att_count1	unc_att_count_out1	unc_att_count2	unc_att_count_out2	chooseAttentionalControl	chooseUncertainty	blockCount	ntrials	trialCount	meta_trialCount	attentional_control	local_uncertainty	unc_att_start1	unc_att_start2	unc_att_block	list.rt_0.currentindex	rt_shifted	pos_shifted	totalPoints	totalEarnings	Earnings
6.6.1	mac	0	2023-06-29	20:04:11	1	1	1	experiment	1	experiment_noU	621	2	750	430	400			57	dynamic	POS	1						20		35		0	0	0	0	0	0	0	0	0	0	0	0	1	2	1	1	wind	cloud	8	24	0	0			0	0	
6.6.1	mac	0	2023-06-29	20:04:11	1	1	1	experiment	1	dispFeedback_noU	1000	2	750	430	400			57	dynamic	POS	1	154.0099999999999909051	0.6999999999999999556	107.8069999999999879492	154.0099999999999909051	0.2627890520409655317	20		35		0	0	0	0	0	0	0	0	0	0	0	0	1	2	1	1	wind	cloud	8	24	0	1	4721	339.9119999999999777174	154.0099999999999909051	5	5
6.6.1	mac	0	2023-06-29	20:04:11	1	1	1	experiment	1	experiment_noU	802	2	750	440	270			91	dynamic	POS	1						20		35		0	0	0	0	0	0	0	0	0	0	0	0	1	2	2	2	wind	cloud	8	24	0	1	4721	339.9119999999999777174	154.0099999999999909051	5	5
6.6.1	mac	0	2023-06-29	20:04:11	1	1	1	experiment	1	dispFeedback_noU	1000	2	750	440	270			91	dynamic	POS	1	8.7100000000000008527	0.6999999999999999556	6.0970000000000004192	8.7100000000000008527	0.3173338361823311859	20		35		0	0	0	0	0	0	0	0	0	0	0	0	1	2	2	2	wind	cloud	8	24	0	2	1602	115.3439999999999940883	162.7199999999999988631	5.5	0.5
6.6.1	mac	0	2023-06-29	20:04:11	1	1	1	dumITI	2	experiment_noU	695	2	750	360	580			53	dynamic	POS	1						20		35		0	0	0	0	0	0	0	0	0	0	0	0	1	2	3	3	wind	cloud	8	24	0	2	1602	115.3439999999999940883	162.7199999999999988631	5.5	0.5
6.6.1	mac	0	2023-06-29	20:04:11	1	1	1	dumITI	2	dispFeedback_noU	1000	2	750	360	580			53	dynamic	POS	1	168.0300000000000011369	0.6999999999999999556	117.6209999999999951115	168.0300000000000011369	0.1702485552919675849	20		35		0	0	0	0	0	0	0	0	0	0	0	0	1	2	3	3	wind	cloud	8	24	0	3	4595	330.8399999999999749889	330.75	10.5	5
6.6.1	mac	0	2023-06-29	20:04:11	1	1	1	dumITI	2	experiment_noU	755	2	750	220	490			52	dynamic	POS	1						20		35		0	0	0	0	0	0	0	0	0	0	0	0	1	2	4	4	wind	cloud	8	24	0	3	4595	330.8399999999999749889	330.75	10.5	5
6.6.1	mac	0	2023-06-29	20:04:11	1	1	1	dumITI	2	dispFeedback_noU	1000	2	750	220	490			52	dynamic	POS	1	164.0300000000000011369	0.6999999999999999556	114.8209999999999979536	164.0300000000000011369	0.2310781549269049773	20		35		0	0	0	0	0	0	0	0	0	0	0	0	1	2	4	4	wind	cloud	8	24	0	4	4605	331.5600000000000022737	494.7799999999999727152	15.5	5
6.6.1	mac	0	2023-06-29	20:04:11	1	1	1	dumITI	2	experiment_noU	872	2	750	250	390			28	dynamic	POS	1						20		35		0	0	0	0	0	0	0	0	0	0	0	0	1	2	5	5	wind	cloud	8	24	0	4	4605	331.5600000000000022737	494.7799999999999727152	15.5	5
6.6.1	mac	0	2023-06-29	20:04:11	1	1	1	dumITI	2	dispFeedback_noU	1000	2	750	250	390			28	dynamic	POS	1	35.1799999999999997158	0.6999999999999999556	24.6259999999999976694	1	0.7434652486684418804	20		35		0	0	0	0	0	0	0	0	0	0	0	0	1	2	5	5	wind	cloud	8	24	0	5	3522	253.5840000000000031832	495.7799999999999727152	16	0.5
6.6.1	mac	0	2023-06-29	20:04:11	1	1	1	dumITI	2	experiment_noU	958	2	750	410	380			43	dynamic	POS	1						20		35		0	0	0	0	0	0	0	0	0	0	0	0	1	2	6	6	wind	cloud	8	24	0	5	3522	253.5840000000000031832	495.7799999999999727152	16	0.5
6.6.1	mac	0	2023-06-29	20:04:11	1	1	1	dumITI	2	dispFeedback_noU	1000	2	750	410	380			43	dynamic	POS	1	153.3899999999999863576	0.6999999999999999556	107.3729999999999904503	1	0.8392956305386721771	20		35		0	0	0	0	0	0	0	0	0	0	0	0	1	2	6	6	wind	cloud	8	24	0	6	4358	313.7760000000000104592	496.7799999999999727152	16.5	0.5
6.6.1	mac	0	2023-06-29	20:04:11	1	1	1	dumITI	2	experiment_noU	1005	2	750	500	600			91	dynamic	POS	1						20		35		0	0	0	0	0	0	0	0	0	0	0	0	1	2	7	7	wind	cloud	8	24	0	6	4358	313.7760000000000104592	496.7799999999999727152	16.5	0.5
6.6.1	mac	0	2023-06-29	20:04:11	1	1	1	dumITI	2	dispFeedback_noU	1000	2	750	500	600			91	dynamic	POS	1	7.1600000000000001421	0.6999999999999999556	5.0119999999999995666	7.1600000000000001421	0.024686327442686614	20		35		0	0	0	0	0	0	0	0	0	0	0	0	1	2	7	7	wind	cloud	8	24	0	7	1805	129.9600000000000079581	503.9399999999999977263	17	0.5
6.6.1	mac	0	2023-06-29	20:04:11	1	1	1	dumITI	2	experiment_U	1238	2	750	300	310			66	dynamic	POS	1						20	210	35		0	0	0	0	0	0	0	1	0	0	0	0	1	2	8	8	wind	cloud	8	24	1	7	1805	129.9600000000000079581	503.9399999999999977263	17	0.5
6.6.1	mac	0	2023-06-29	20:04:11	1	1	1	dumITI	2	dispFeedback_U	1000	2	750	300	310			66	dynamic	POS	1	18.3599999999999994316	0.6999999999999999556	12.8519999999999985363	1	0.7317277311188465916	20	210	35		0	0	0	0	0	0	1	1	0	0	0	0	1	2	8	8	wind	cloud	8	24	1	8	788	56.735999999999997101	504.9399999999999977263	17.5	0.5
6.6.1	mac	0	2023-06-29	20:04:11	1	1	1	dumITI	2	experiment_U	772	2	750	330	340			74	dynamic	POS	1						20	210	35		0	0	0	0	0	0	1	2	0	0	0	0	1	2	9	9	wind	cloud	8	24	1	8	788	56.735999999999997101	504.9399999999999977263	17.5	0.5
6.6.1	mac	0	2023-06-29	20:04:11	1	1	1	dumITI	2	dispFeedback_U	1000	2	750	330	340			74	dynamic	POS	1	18.5899999999999998579	0.6999999999999999556	13.0129999999999999005	18.5899999999999998579	0.3823474537074443291	20	210	35		0	0	0	0	0	0	2	2	0	0	0	0	1	2	9	9	wind	cloud	8	24	1	9	722	51.9840000000000017621	523.5299999999999727152	18	0.5
6.6.1	mac	0	2023-06-29	20:04:11	1	1	1	dumITI	2	experiment_U	1183	2	750	170	570			40	dynamic	POS	1						20	210	35		0	0	0	0	0	0	2	3	0	0	0	0	1	2	10	10	wind	cloud	8	24	1	9	722	51.9840000000000017621	523.5299999999999727152	18	0.5
6.6.1	mac	0	2023-06-29	20:04:11	1	1	1	dumITI	2	dispFeedback_U	1000	2	750	170	570			40	dynamic	POS	1	170.1100000000000136424	0.6999999999999999556	119.076999999999998181	170.1100000000000136424	0.0968156345414034197	20	210	35		0	0	0	0	0	0	3	3	0	0	0	0	1	2	10	10	wind	cloud	8	24	1	10	4433	319.1759999999999877218	693.6399999999999863576	23	5
6.6.1	mac	0	2023-06-29	20:04:11	1	1	1	dumITI	2	experiment_U	4594	2	750	210	440			74	dynamic	POS	1						20	210	35		0	0	0	0	0	0	3	4	0	0	0	0	1	2	11	11	wind	cloud	8	24	1	10	4433	319.1759999999999877218	693.6399999999999863576	23	5
6.6.1	mac	0	2023-06-29	20:04:11	1	1	1	dumITI	2	dispFeedback_U	1000	2	750	210	440			74	dynamic	POS	1	162.3700000000000045475	0.6999999999999999556	113.6589999999999918145	162.3700000000000045475	0.6125313103228181566	20	210	35		0	0	0	0	0	0	4	4	0	0	0	0	1	2	11	11	wind	cloud	8	24	1	11	4544	327.1680000000000063665	856.0099999999999909051	28	5
6.6.1	mac	0	2023-06-29	20:04:11	1	1	1	dumITI	2	experiment_U	4847	2	750	420	550			68	dynamic	POS	1						20	210	35		0	0	0	0	0	0	4	5	0	0	0	0	1	2	12	12	wind	cloud	8	24	1	11	4544	327.1680000000000063665	856.0099999999999909051	28	5
6.6.1	mac	0	2023-06-29	20:04:11	1	1	1	dumITI	2	dispFeedback_U	1000	2	750	420	550			68	dynamic	POS	1	171.4300000000000068212	0.6999999999999999556	120.000999999999990564	171.4300000000000068212	0.5259227064731351042	20	210	35		0	0	0	0	0	0	5	5	0	0	0	0	1	2	12	12	wind	cloud	8	24	1	12	4497	323.7839999999999918145	1027.4400000000000545697	33	5
6.6.1	mac	0	2023-06-29	20:04:11	1	1	1	dumITI	2	experiment_U	796	2	750	230	240			5	dynamic	POS	1						20	210	35		0	0	0	0	0	0	5	6	0	0	0	0	1	2	13	13	wind	cloud	8	24	1	12	4497	323.7839999999999918145	1027.4400000000000545697	33	5
