build	computer.platform	computer.touch	date	time	subject	group	sessionid	blockcode	blocknum	trialcode	latency	randStart	startPos	scrfunc	rtvspos	randStart	circleproportion	mag	freq	ev	inc	rng	startPos	n_revolutions	totalPoints	totalEarnings	Earnings
6.6.1	mac	0	2023-01-18	15:32:19	1	1	1	experiment	1	experiment_noU	1048	1	34	IEV	POS	1	0.3300000000000000155						34	2172	0	0	
6.6.1	mac	0	2023-01-18	15:32:19	1	1	1	experiment	1	dispFeedback_noU	1000	1	34	IEV	POS	1	0.3300000000000000155	156	1.0324803214500288817	160.5619614625005908692	156	0.5120919212959921252	34	2172	156	10	10
6.6.1	mac	0	2023-01-18	15:32:19	1	1	1	experiment	1	experiment_noU	1086	1	48	IEV	POS	1	0.3300000000000000155						48	5291	156	10	10
6.6.1	mac	0	2023-01-18	15:32:19	1	1	1	experiment	1	dispFeedback_noU	1000	1	48	IEV	POS	1	0.3300000000000000155	268	0.9371512037661430261	250.8671703202506648722	268	0.7593550460318464479	48	5291	424	20	10
6.6.1	mac	0	2023-01-18	15:32:19	1	1	1	experiment	1	experiment_U	769	1	0	IEV	POS	1	0.3300000000000000155						0	8074	424	20	10
6.6.1	mac	0	2023-01-18	15:32:19	1	1	1	experiment	1	dispFeedback_U	1000	1	0	IEV	POS	1	0.3300000000000000155	58	1.1148024868978780866	65.2036414745671493165	58	0.8809833279533738626	0	8074	482	26	6
6.6.1	mac	0	2023-01-18	15:32:19	1	1	1	experiment	1	experiment_U	2529	1	89	IEV	POS	1	0.3300000000000000155						89	12633	482	26	6
6.6.1	mac	0	2023-01-18	15:32:19	1	1	1	experiment	1	dispFeedback_U	1000	1	89	IEV	POS	1	0.3300000000000000155	101	1.1018067869201131348	111.4630665922986025862	101	0.3035214388052749901	89	12633	583	35	9
6.6.1	mac	0	2023-01-18	15:32:19	1	1	1	experiment	1	experiment_U	2826	1	11	IEV	POS	1	0.3300000000000000155						11	17497	583	35	9
6.6.1	mac	0	2023-01-18	15:32:19	1	1	1	experiment	1	dispFeedback_U	1000	1	11	IEV	POS	1	0.3300000000000000155	246	0.9523877309496314725	234.2184931122112914181	246	0.7121989458594933931	11	17497	829	45	10
6.6.1	mac	0	2023-01-18	15:32:19	1	1	1	experiment	1	experiment_U	1975	1	28	IEV	POS	1	0.3300000000000000155						28	21496	829	45	10
6.6.1	mac	0	2023-01-18	15:32:19	1	1	1	experiment	1	dispFeedback_U	1000	1	28	IEV	POS	1	0.3300000000000000155	249	0.9525252068675787998	236.9339089432362186471	249	0.0603057693364810604	28	21496	1078	55	10
6.6.1	mac	0	2023-01-18	15:32:19	1	1	1	experiment	1	experiment_U	2871	1	12	IEV	POS	1	0.3300000000000000155						12	26391	1078	55	10
6.6.1	mac	0	2023-01-18	15:32:19	1	1	1	experiment	1	dispFeedback_U	1000	1	12	IEV	POS	1	0.3300000000000000155	263	0.939240991001642711	246.5929584747523506394	263	0.7926468189788625773	12	26391	1341	65	10
6.6.1	mac	0	2023-01-18	15:32:19	1	1	1	experiment	1	experiment_U	403	1	57	IEV	POS	1	0.3300000000000000155						57	28822	1341	65	10
6.6.1	mac	0	2023-01-18	15:32:19	1	1	1	experiment	1	dispFeedback_U	1000	1	57	IEV	POS	1	0.3300000000000000155	228	0.9691253431110610217	220.7157817944678299682	228	0.8939124620272573818	57	28822	1569	75	10
6.6.1	mac	0	2023-01-18	15:32:19	1	1	1	experiment	2	experiment_noU	722	1	51	DEV	POS	1	0.3300000000000000155						51	31573	1569	75	10
6.6.1	mac	0	2023-01-18	15:32:19	1	1	1	experiment	2	dispFeedback_noU	1000	1	51	DEV	POS	1	0.3300000000000000155	68	0.2352140692469010808	15.8794907741829156578	0	0.9897079071937380235	51	31573	1569	75	0
6.6.1	mac	0	2023-01-18	15:32:19	1	1	1	experiment	2	experiment_noU	2370	1	35	DEV	POS	1	0.3300000000000000155						35	35974	1569	75	0
6.6.1	mac	0	2023-01-18	15:32:19	1	1	1	experiment	2	dispFeedback_noU	1000	1	35	DEV	POS	1	0.3300000000000000155	62	0.7983496678502792765	49.1071294240228652939	62	0.7825688034721112185	35	35974	1631	82	7
6.6.1	mac	0	2023-01-18	15:32:19	1	1	1	experiment	2	experiment_U	1314	1	16	DEV	POS	1	0.3300000000000000155						16	39332	1631	82	7
6.6.1	mac	0	2023-01-18	15:32:19	1	1	1	experiment	2	dispFeedback_U	1000	1	16	DEV	POS	1	0.3300000000000000155	61	0.3296466328690775827	19.9471825766734802698	61	0.1666909940928898159	16	39332	1692	89	7
6.6.1	mac	0	2023-01-18	15:32:19	1	1	1	experiment	2	experiment_U	2251	1	36	DEV	POS	1	0.3300000000000000155						36	43603	1692	89	7
6.6.1	mac	0	2023-01-18	15:32:19	1	1	1	experiment	2	dispFeedback_U	1000	1	36	DEV	POS	1	0.3300000000000000155	63	0.8167213284796053241	51.0539063566938580152	63	0.2338089577932397356	36	43603	1755	96	7
6.6.1	mac	0	2023-01-18	15:32:19	1	1	1	experiment	2	experiment_noU	400	1	78	DEV	POS	1	0.3300000000000000155						78	46034	1755	96	7
6.6.1	mac	0	2023-01-18	15:32:19	1	1	1	experiment	2	dispFeedback_noU	1000	1	78	DEV	POS	1	0.3300000000000000155	66	0.7518663199496276039	49.2553666320345797658	66	0.5583503219667705908	78	46034	1821	103	7
6.6.1	mac	0	2023-01-18	15:32:19	1	1	1	experiment	2	experiment_noU	574	1	6	DEV	POS	1	0.3300000000000000155						6	48643	1821	103	7
6.6.1	mac	0	2023-01-18	15:32:19	1	1	1	experiment	2	dispFeedback_noU	1000	1	6	DEV	POS	1	0.3300000000000000155	65	0.4515713050514691407	29.1312276588741880801	65	0.0335697960186679342	6	48643	1886	110	7
6.6.1	mac	0	2023-01-18	15:32:19	1	1	1	experiment	2	experiment_noU	1894	1	46	DEV	POS	1	0.3300000000000000155						46	52577	1886	110	7
6.6.1	mac	0	2023-01-18	15:32:19	1	1	1	experiment	2	dispFeedback_noU	1000	1	46	DEV	POS	1	0.3300000000000000155	68	0.7789799879305729924	52.5895647791043998609	68	0.5477494838525889254	46	52577	1954	117	7
6.6.1	mac	0	2023-01-18	15:32:19	1	1	1	endscreen	3	endscreen	5000	1	46	DEV	POS	1	0.3300000000000000155						46	52577	1954	117	
