build	computer.platform	computer.touch	date	time	subject	group	sessionid	blockcode	blocknum	trialcode	latency	randStart	startPos	scrfunc	rtvspos	randStart	circleproportion	mag	freq	ev	inc	rng	startPos	n_revolutions	totalPoints	totalEarnings	Earnings
6.6.1	mac	0	2023-01-19	12:25:30	1	1	1	experiment	1	experiment_noU	604	1	70	CEVR	POS	1	0.3300000000000000155						70	1681	0	0	
6.6.1	mac	0	2023-01-19	12:25:30	1	1	1	experiment	1	dispFeedback_noU	1000	1	70	CEVR	POS	1	0.3300000000000000155	173	0.1762864143751701473	30.4774026681186995802	0	0.9767201109735109688	70	1681	0	0	0
6.6.1	mac	0	2023-01-19	12:25:30	1	1	1	experiment	1	experiment_noU	403	1	43	CEVR	POS	1	0.3300000000000000155						43	4129	0	0	0
6.6.1	mac	0	2023-01-19	12:25:30	1	1	1	experiment	1	dispFeedback_noU	1000	1	43	CEVR	POS	1	0.3300000000000000155	75	0.3323069027457017932	25.0369515011547356664	75	0.2979980060593220292	43	4129	75	8	8
6.6.1	mac	0	2023-01-19	12:25:30	1	1	1	experiment	1	experiment_U	577	1	70	CEVR	POS	1	0.3300000000000000155						70	6752	75	8	8
6.6.1	mac	0	2023-01-19	12:25:30	1	1	1	experiment	1	dispFeedback_U	1000	1	70	CEVR	POS	1	0.3300000000000000155	167	0.1756408517564085059	29.2718025227180262959	0	0.9322924413560639278	70	6752	75	8	0
6.6.1	mac	0	2023-01-19	12:25:30	1	1	1	experiment	1	experiment_U	232	1	74	CEVR	POS	1	0.3300000000000000155						74	9024	75	8	0
6.6.1	mac	0	2023-01-19	12:25:30	1	1	1	experiment	1	dispFeedback_U	1000	1	74	CEVR	POS	1	0.3300000000000000155	176	0.1722532588454376012	30.2821229050279328021	0	0.8476126060931972184	74	9024	75	8	0
6.6.1	mac	0	2023-01-19	12:25:30	1	1	1	experiment	1	experiment_U	349	1	4	CEVR	POS	1	0.3300000000000000155						4	11407	75	8	0
6.6.1	mac	0	2023-01-19	12:25:30	1	1	1	experiment	1	dispFeedback_U	1000	1	4	CEVR	POS	1	0.3300000000000000155	131	0.2194543297746144594	28.6607354685646456005	0	0.7994573553557176027	4	11407	75	8	0
6.6.1	mac	0	2023-01-19	12:25:30	1	1	1	experiment	1	experiment_U	765	1	49	CEVR	POS	1	0.3300000000000000155						49	14223	75	8	0
6.6.1	mac	0	2023-01-19	12:25:30	1	1	1	experiment	1	dispFeedback_U	1000	1	49	CEVR	POS	1	0.3300000000000000155	56	0.4003091190108191699	22.5888717156105087724	0	0.5880753040751617311	49	14223	75	8	0
6.6.1	mac	0	2023-01-19	12:25:30	1	1	1	experiment	1	experiment_U	443	1	74	CEVR	POS	1	0.3300000000000000155						74	16718	75	8	0
6.6.1	mac	0	2023-01-19	12:25:30	1	1	1	experiment	1	dispFeedback_U	1000	1	74	CEVR	POS	1	0.3300000000000000155	172	0.1772273162720678641	30.4425892979334875577	0	0.8929323265079717187	74	16718	75	8	0
6.6.1	mac	0	2023-01-19	12:25:30	1	1	1	experiment	2	experiment_noU	440	1	64	CEV	POS	1	0.3300000000000000155						64	19198	75	8	0
6.6.1	mac	0	2023-01-19	12:25:30	1	1	1	experiment	2	dispFeedback_noU	1000	1	64	CEV	POS	1	0.3300000000000000155	181	0.2014285714285714013	36.3957142857142841308	0	0.9648286981891907033	64	19198	75	8	0
6.6.1	mac	0	2023-01-19	12:25:30	1	1	1	experiment	2	experiment_noU	389	1	10	CEV	POS	1	0.3300000000000000155						10	21629	75	8	0
6.6.1	mac	0	2023-01-19	12:25:30	1	1	1	experiment	2	dispFeedback_noU	1000	1	10	CEV	POS	1	0.3300000000000000155	62	0.5944285714285714173	37	62	0.4915379545398843586	10	21629	137	15	7
6.6.1	mac	0	2023-01-19	12:25:30	1	1	1	experiment	2	experiment_noU	0	1	14	CEV	POS	1	0.3300000000000000155						14	22930	137	15	7
