build	computer.platform	computer.touch	date	time	subject	group	sessionid	blockcode	blocknum	trialcode	k	latency	randStart	scrfunc	rtvspos	randStart	circleproportion	mag	freq	ev	inc	rng	totalPoints	radius_px
6.6.1	mac	0	2023-01-11	16:43:20	1	1	1	instructions	1	instructions1	37	675	1	DEV	POS	1	0.3300000000000000155						0	475.2000000000000454747px
6.6.1	mac	0	2023-01-11	16:43:20	1	1	1	instructions	1	instructions2	37	257	1	DEV	POS	1	0.3300000000000000155						0	475.2000000000000454747px
6.6.1	mac	0	2023-01-11	16:43:20	1	1	1	instructions	1	instructions3	37	296	1	DEV	POS	1	0.3300000000000000155						0	475.2000000000000454747px
6.6.1	mac	0	2023-01-11	16:43:20	1	1	1	experiment	2	experiment	37	273	1	DEV	POS	1	0.3300000000000000155						0	475.2000000000000454747px
6.6.1	mac	0	2023-01-11	16:43:20	1	1	1	experiment	2	dispFeedback	37	1000	1	DEV	POS	1	0.3300000000000000155	69	0.8242587536471791543	56.4706293809957529106	69	0.5342808856010159424	69	475.2000000000000454747px
6.6.1	mac	0	2023-01-11	16:43:20	1	1	1	experiment	2	experiment	37	343	1	DEV	POS	1	0.3300000000000000155						69	475.2000000000000454747px
6.6.1	mac	0	2023-01-11	16:43:20	1	1	1	experiment	2	dispFeedback	37	1000	1	DEV	POS	1	0.3300000000000000155	61	0.8242587536471791543	49.8765593518183223409	61	0.5229050278484134173	130	475.2000000000000454747px
6.6.1	mac	0	2023-01-11	16:43:20	1	1	1	experiment	2	experiment	37	264	1	DEV	POS	1	0.3300000000000000155						130	475.2000000000000454747px
6.6.1	mac	0	2023-01-11	16:43:20	1	1	1	experiment	2	dispFeedback	37	1000	1	DEV	POS	1	0.3300000000000000155	69	0.8242587536471791543	56.4706293809957529106	69	0.0134368157045535782	199	475.2000000000000454747px
6.6.1	mac	0	2023-01-11	16:43:20	1	1	1	experiment	2	experiment	37	379	1	DEV	POS	1	0.3300000000000000155						199	475.2000000000000454747px
6.6.1	mac	0	2023-01-11	16:43:20	1	1	1	experiment	2	dispFeedback	37	1000	1	DEV	POS	1	0.3300000000000000155	67	0.8242587536471791543	54.8221118737013952682	67	0.0193091835871593044	266	475.2000000000000454747px
6.6.1	mac	0	2023-01-11	16:43:20	1	1	1	experiment	2	experiment	37	379	1	DEV	POS	1	0.3300000000000000155						266	475.2000000000000454747px
6.6.1	mac	0	2023-01-11	16:43:20	1	1	1	experiment	2	dispFeedback	37	1000	1	DEV	POS	1	0.3300000000000000155	64	0.8242587536471791543	52.3493356127598588046	64	0.4303600980039593016	330	475.2000000000000454747px
6.6.1	mac	0	2023-01-11	16:43:20	1	1	1	experiment	3	experiment	37	1273	1	DEV	POS	1	0.3300000000000000155						330	475.2000000000000454747px
6.6.1	mac	0	2023-01-11	16:43:20	1	1	1	experiment	3	dispFeedback	37	1000	1	DEV	POS	1	0.3300000000000000155	64	0.8242587536471791543	52.3493356127598588046	64	0.0437778921434138629	394	475.2000000000000454747px
6.6.1	mac	0	2023-01-11	16:43:20	1	1	1	experiment	3	experiment	37	867	1	DEV	POS	1	0.3300000000000000155						394	475.2000000000000454747px
6.6.1	mac	0	2023-01-11	16:43:20	1	1	1	experiment	3	dispFeedback	37	1000	1	DEV	POS	1	0.3300000000000000155	70	0.8242587536471791543	57.2948881346429317318	70	0.0802814916428833958	464	475.2000000000000454747px
6.6.1	mac	0	2023-01-11	16:43:20	1	1	1	experiment	3	experiment	37	773	1	DEV	POS	1	0.3300000000000000155						464	475.2000000000000454747px
6.6.1	mac	0	2023-01-11	16:43:20	1	1	1	experiment	3	dispFeedback	37	1000	1	DEV	POS	1	0.3300000000000000155	61	0.8242587536471791543	49.8765593518183223409	0	0.9796420894515798228	464	475.2000000000000454747px
6.6.1	mac	0	2023-01-11	16:43:20	1	1	1	experiment	3	experiment	37	604	1	DEV	POS	1	0.3300000000000000155						464	475.2000000000000454747px
6.6.1	mac	0	2023-01-11	16:43:20	1	1	1	experiment	3	dispFeedback	37	1000	1	DEV	POS	1	0.3300000000000000155	69	0.8242587536471791543	56.4706293809957529106	0	0.8526890924788753656	464	475.2000000000000454747px
6.6.1	mac	0	2023-01-11	16:43:20	1	1	1	experiment	3	experiment	37	787	1	DEV	POS	1	0.3300000000000000155						464	475.2000000000000454747px
6.6.1	mac	0	2023-01-11	16:43:20	1	1	1	experiment	3	dispFeedback	37	1000	1	DEV	POS	1	0.3300000000000000155	68	0.8242587536471791543	55.6463706273485740894	68	0.5786261001086389077	532	475.2000000000000454747px
6.6.1	mac	0	2023-01-11	16:43:20	1	1	1	endscreen	4	endscreen	37	3000	1	DEV	POS	1	0.3300000000000000155						532	475.2000000000000454747px
