build	computer.platform	computer.touch	date	time	subject	group	sessionid	blockcode	blocknum	trialcode	latency	randStart	startPos	scrfunc	rtvspos	randStart	circleproportion	mag	freq	ev	inc	rng	startPos	n_revolutions	totalPoints	totalEarnings	Earnings
6.6.1	mac	0	2023-01-18	13:17:37	1	1	1	experiment	1	experiment_noU	1237	1	18	DEV	POS	1	0.3300000000000000155						18	2338	0	0	
6.6.1	mac	0	2023-01-18	13:17:37	1	1	1	experiment	1	dispFeedback_noU	1000	1	18	DEV	POS	1	0.3300000000000000155	64	0.3278501996330923651	20.8220295572978741916	0	0.9742219103440227235	18	2338	0	0	0
6.6.1	mac	0	2023-01-18	13:17:37	1	1	1	experiment	1	experiment_noU	452	1	85	DEV	POS	1	0.3300000000000000155						85	4818	0	0	0
6.6.1	mac	0	2023-01-18	13:17:37	1	1	1	experiment	1	dispFeedback_noU	1000	1	85	DEV	POS	1	0.3300000000000000155	67	0.6564436456893352201	43.6605942290853761278	67	0.1374924204166728114	85	4818	67	7	7
6.6.1	mac	0	2023-01-18	13:17:37	1	1	1	experiment	1	experiment_U	992	1	71	DEV	POS	1	0.3300000000000000155						71	7841	67	7	7
6.6.1	mac	0	2023-01-18	13:17:37	1	1	1	experiment	1	dispFeedback_U	1000	1	71	DEV	POS	1	0.3300000000000000155	69	0.6929569931795281912	47.4750402900307193477	69	0.2651481500978460915	71	7841	136	14	7
6.6.1	mac	0	2023-01-18	13:17:37	1	1	1	experiment	1	experiment_U	1479	1	62	DEV	POS	1	0.3300000000000000155						62	11351	136	14	7
6.6.1	mac	0	2023-01-18	13:17:37	1	1	1	experiment	1	dispFeedback_U	1000	1	62	DEV	POS	1	0.3300000000000000155	61	0.6843360860227121201	41.4097263269260480456	61	0.2059008281691700193	62	11351	197	21	7
6.6.1	mac	0	2023-01-18	13:17:37	1	1	1	experiment	1	experiment_U	1577	1	16	DEV	POS	1	0.3300000000000000155						16	14976	197	21	7
6.6.1	mac	0	2023-01-18	13:17:37	1	1	1	experiment	1	dispFeedback_U	1000	1	16	DEV	POS	1	0.3300000000000000155	68	0.3093434981531303363	20.8840280715513380017	0	0.3740276362220821271	16	14976	197	21	0
6.6.1	mac	0	2023-01-18	13:17:37	1	1	1	experiment	1	experiment_U	1032	1	77	DEV	POS	1	0.3300000000000000155						77	18031	197	21	0
6.6.1	mac	0	2023-01-18	13:17:37	1	1	1	experiment	1	dispFeedback_U	1000	1	77	DEV	POS	1	0.3300000000000000155	67	0.6178000335250732888	41.0903765396777131969	0	0.706805080805626984	77	18031	197	21	0
6.6.1	mac	0	2023-01-18	13:17:37	1	1	1	experiment	2	experiment_noU	1213	1	25	CEVR	POS	1	0.3300000000000000155						25	21278	197	21	0
6.6.1	mac	0	2023-01-18	13:17:37	1	1	1	experiment	2	dispFeedback_noU	1000	1	25	CEVR	POS	1	0.3300000000000000155	76	0.3248056182593428987	24.6573865061449737368	0	0.7027603638597671454	25	21278	197	21	0
6.6.1	mac	0	2023-01-18	13:17:37	1	1	1	experiment	2	experiment_noU	939	1	31	CEVR	POS	1	0.3300000000000000155						31	24238	197	21	0
6.6.1	mac	0	2023-01-18	13:17:37	1	1	1	experiment	2	dispFeedback_noU	1000	1	31	CEVR	POS	1	0.3300000000000000155	70	0.326937642009593521	22.9416813935874799313	0	0.9201300539821689606	31	24238	197	21	0
6.6.1	mac	0	2023-01-18	13:17:37	1	1	1	experiment	2	experiment_U	3078	1	84	CEVR	POS	1	0.3300000000000000155						84	29325	197	21	0
6.6.1	mac	0	2023-01-18	13:17:37	1	1	1	experiment	2	dispFeedback_U	1000	1	84	CEVR	POS	1	0.3300000000000000155	75	0.3104026845637583576	23.3422818791946298234	0	0.8814521254695607544	84	29325	197	21	0
6.6.1	mac	0	2023-01-18	13:17:37	1	1	1	experiment	2	experiment_U	3272	1	81	CEVR	POS	1	0.3300000000000000155						81	34621	197	21	0
6.6.1	mac	0	2023-01-18	13:17:37	1	1	1	experiment	2	dispFeedback_U	1000	1	81	CEVR	POS	1	0.3300000000000000155	79	0.3137112403100775215	24.7652616279069732741	0	0.7738133957082902192	81	34621	197	21	0
6.6.1	mac	0	2023-01-18	13:17:37	1	1	1	experiment	2	experiment_U	2164	1	2	CEVR	POS	1	0.3300000000000000155						2	38811	197	21	0
6.6.1	mac	0	2023-01-18	13:17:37	1	1	1	experiment	2	dispFeedback_U	1000	1	2	CEVR	POS	1	0.3300000000000000155	84	0.3093645484949832936	25.8628762541806054287	84	0.0870680737046217734	2	38811	281	29	8
6.6.1	mac	0	2023-01-18	13:17:37	1	1	1	endscreen	3	endscreen	2037	1	2	CEVR	POS	1	0.3300000000000000155						2	38811	281	29	
