build	computer.platform	computer.touch	date	time	subject	group	sessionid	blockcode	blocknum	trialcode	latency	randStart	startPos	scrfunc	rtvspos	randStart	circleproportion	mag	freq	ev	inc	rng	startPos	n_revolutions	totalPoints	totalEarnings	Earnings
6.6.1	mac	0	2023-01-17	11:27:05	1	1	1	instructions	1	instructions1	603	1	75	IEV	POS	1	0.3300000000000000155						75	0	0	0	
6.6.1	mac	0	2023-01-17	11:27:05	1	1	1	instructions	1	displayGoodJob	1036	1	75	IEV	POS	1	0.3300000000000000155						75	0	0	0	
6.6.1	mac	0	2023-01-17	11:27:05	1	1	1	instructions	1	instructions3	584	1	75	IEV	POS	1	0.3300000000000000155						75	0	0	0	
6.6.1	mac	0	2023-01-17	11:27:05	1	1	1	instructions	1	countdown	1000	1	75	IEV	POS	1	0.3300000000000000155						75	0	0	0	
6.6.1	mac	0	2023-01-17	11:27:05	1	1	1	experiment	2	experiment	1203	1	61	IEV	POS	1	0.3300000000000000155						61	9086	0	0	
6.6.1	mac	0	2023-01-17	11:27:05	1	1	1	experiment	2	dispFeedback	1000	1	61	IEV	POS	1	0.3300000000000000155	21	0.969932057317824059	20.2189712608756089196	21	0.7903284891020340153	61	9086	21	2	2
6.6.1	mac	0	2023-01-17	11:27:05	1	1	1	experiment	2	experiment	831	1	35	IEV	POS	1	0.3300000000000000155						35	11949	21	2	2
6.6.1	mac	0	2023-01-17	11:27:05	1	1	1	experiment	2	dispFeedback	1000	1	35	IEV	POS	1	0.3300000000000000155	144	1.0507993636676722371	151.6206132926540135486	144	0.1718996691452105707	35	11949	165	2	2
6.6.1	mac	0	2023-01-17	11:27:05	1	1	1	experiment	2	experiment	1484	1	94	IEV	POS	1	0.3300000000000000155						94	15453	165	2	2
6.6.1	mac	0	2023-01-17	11:27:05	1	1	1	experiment	2	dispFeedback	1000	1	94	IEV	POS	1	0.3300000000000000155	71	1.1248065637376174486	80.3987158975995583887	71	0.0312292741218649951	94	15453	236	9	7
6.6.1	mac	0	2023-01-17	11:27:05	1	1	1	experiment	2	experiment	1295	1	100	IEV	POS	1	0.3300000000000000155						100	18780	236	9	7
6.6.1	mac	0	2023-01-17	11:27:05	1	1	1	experiment	2	dispFeedback	1000	1	100	IEV	POS	1	0.3300000000000000155	75	1.1249100692213076513	84.8616378777513062914	75	0.74750775046355733	100	18780	311	17	8
6.6.1	mac	0	2023-01-17	11:27:05	1	1	1	experiment	2	experiment	1145	1	44	IEV	POS	1	0.3300000000000000155						44	21947	311	17	8
6.6.1	mac	0	2023-01-17	11:27:05	1	1	1	experiment	2	dispFeedback	1000	1	44	IEV	POS	1	0.3300000000000000155	237	0.9566395984504119099	227.0120244572724175214	0	0.9785115218205636678	44	21947	311	17	0
6.6.1	mac	0	2023-01-17	11:27:05	1	1	1	experiment	3	experiment	1481	1	22	IEV	POS	1	0.3300000000000000155						22	25467	311	17	0
6.6.1	mac	0	2023-01-17	11:27:05	1	1	1	experiment	3	dispFeedback	1000	1	22	IEV	POS	1	0.3300000000000000155	149	1.0507993636676722371	156.8746101109923927197	149	0.6440842583878162442	22	25467	460	17	0
6.6.1	mac	0	2023-01-17	11:27:05	1	1	1	experiment	3	experiment	364	1	60	IEV	POS	1	0.3300000000000000155						60	27850	460	17	0
6.6.1	mac	0	2023-01-17	11:27:05	1	1	1	experiment	3	dispFeedback	1000	1	60	IEV	POS	1	0.3300000000000000155	242	0.9540360614468407219	230.6146134132144709383	242	0.8120334681151513134	60	27850	702	17	0
6.6.1	mac	0	2023-01-17	11:27:05	1	1	1	experiment	3	experiment	2187	1	94	IEV	POS	1	0.3300000000000000155						94	32058	702	17	0
6.6.1	mac	0	2023-01-17	11:27:05	1	1	1	experiment	3	dispFeedback	1000	1	94	IEV	POS	1	0.3300000000000000155	96	1.1072177851709357199	106.5783157774275622387	96	0.8476524348016019061	94	32058	798	26	9
6.6.1	mac	0	2023-01-17	11:27:05	1	1	1	experiment	3	experiment	945	1	46	IEV	POS	1	0.3300000000000000155						46	35033	798	26	9
6.6.1	mac	0	2023-01-17	11:27:05	1	1	1	experiment	3	dispFeedback	1000	1	46	IEV	POS	1	0.3300000000000000155	221	0.9702007417548933477	214.8701701233389655954	221	0.0631134095748684815	46	35033	1019	26	9
6.6.1	mac	0	2023-01-17	11:27:05	1	1	1	experiment	3	experiment	986	1	18	IEV	POS	1	0.3300000000000000155						18	38056	1019	26	9
6.6.1	mac	0	2023-01-17	11:27:05	1	1	1	experiment	3	dispFeedback	1000	1	18	IEV	POS	1	0.3300000000000000155	99	1.1072728280919013066	109.8481201520399110905	99	0.5065040000496674466	18	38056	1118	35	9
6.6.1	mac	0	2023-01-17	11:27:05	1	1	1	endscreen	4	endscreen	3000	1	18	IEV	POS	1	0.3300000000000000155						18	38056	1118	35	
