build	computer.platform	computer.touch	date	time	subject	group	sessionid	blockcode	blocknum	trialcode	latency	randStart	startPos	scrfunc	rtvspos	randStart	circleproportion	mag	freq	ev	inc	rng	startPos	n_revolutions	totalPoints	totalEarnings	Earnings
6.6.1	mac	0	2023-01-13	16:35:51	1	1	1	instructions	1	instructions1	813	1	75	IEV	POS	1	0.3300000000000000155						75	0	0	0	
6.6.1	mac	0	2023-01-13	16:35:51	1	1	1	instructions	1	displayGoodJob	2225	1	75	IEV	POS	1	0.3300000000000000155						75	0	0	0	
6.6.1	mac	0	2023-01-13	16:35:51	1	1	1	instructions	1	instructions3	1677	1	75	IEV	POS	1	0.3300000000000000155						75	0	0	0	
6.6.1	mac	0	2023-01-13	16:35:51	1	1	1	instructions	1	countdown	1000	1	75	IEV	POS	1	0.3300000000000000155						75	0	0	0	
6.6.1	mac	0	2023-01-13	16:35:51	1	1	1	experiment	2	experiment	2914	1	9	IEV	POS	1	0.3300000000000000155						9	14367	0	0	
6.6.1	mac	0	2023-01-13	16:35:51	1	1	1	experiment	2	dispFeedback	1000	1	9	IEV	POS	1	0.3300000000000000155	241	0.9540360614468407219	229.6605773517676141182	241	0.9020952535565233132	9	14367	241	0	
6.6.1	mac	0	2023-01-13	16:35:51	1	1	1	experiment	2	experiment	1020	1	70	IEV	POS	1	0.3300000000000000155						70	17406	241	0	
6.6.1	mac	0	2023-01-13	16:35:51	1	1	1	experiment	2	dispFeedback	1000	1	70	IEV	POS	1	0.3300000000000000155	24	1.0046589925674280774	24.2726443713619453035	24	0.25688838755173804	70	17406	265	2	2
6.6.1	mac	0	2023-01-13	16:35:51	1	1	1	experiment	2	experiment	1777	1	34	IEV	POS	1	0.3300000000000000155						34	21214	265	2	2
6.6.1	mac	0	2023-01-13	16:35:51	1	1	1	experiment	2	dispFeedback	1000	1	34	IEV	POS	1	0.3300000000000000155	267	0.9384054839924957925	250.363067139072484224	267	0.5253033646208474794	34	21214	532	2	2
6.6.1	mac	0	2023-01-13	16:35:51	1	1	1	experiment	2	experiment	4151	1	83	IEV	POS	1	0.3300000000000000155						83	27389	532	2	2
6.6.1	mac	0	2023-01-13	16:35:51	1	1	1	experiment	2	dispFeedback	1000	1	83	IEV	POS	1	0.3300000000000000155	233	0.9626372281553967625	223.9656721450075167468	233	0.2611489091676540975	83	27389	765	2	2
6.6.1	mac	0	2023-01-13	16:35:51	1	1	1	experiment	2	experiment	2462	1	21	IEV	POS	1	0.3300000000000000155						21	31884	765	2	2
6.6.1	mac	0	2023-01-13	16:35:51	1	1	1	experiment	2	dispFeedback	1000	1	21	IEV	POS	1	0.3300000000000000155	272	0.9335211962424956322	254.1887077336010349882	272	0.727327852679260034	21	31884	1037	2	2
6.6.1	mac	0	2023-01-13	16:35:51	1	1	1	experiment	3	experiment	1177	1	48	IEV	POS	1	0.3300000000000000155						48	35099	1037	2	2
6.6.1	mac	0	2023-01-13	16:35:51	1	1	1	experiment	3	dispFeedback	1000	1	48	IEV	POS	1	0.3300000000000000155	291	0.9244091647356319497	269.1440105709462500272	291	0.4876406450028625827	48	35099	1328	2	2
6.6.1	mac	0	2023-01-13	16:35:51	1	1	1	experiment	3	experiment	2248	1	93	IEV	POS	1	0.3300000000000000155						93	39370	1328	2	2
6.6.1	mac	0	2023-01-13	16:35:51	1	1	1	experiment	3	dispFeedback	1000	1	93	IEV	POS	1	0.3300000000000000155	99	1.1066069186282163628	109.3651851207582978986	99	0.6308476728458999316	93	39370	1427	11	9
6.6.1	mac	0	2023-01-13	16:35:51	1	1	1	experiment	3	experiment	572	1	30	IEV	POS	1	0.3300000000000000155						30	41961	1427	11	9
6.6.1	mac	0	2023-01-13	16:35:51	1	1	1	experiment	3	dispFeedback	1000	1	30	IEV	POS	1	0.3300000000000000155	110	1.0956518748730017521	120.9944140242703838339	110	0.6637772639896202254	30	41961	1537	21	10
6.6.1	mac	0	2023-01-13	16:35:51	1	1	1	experiment	3	experiment	1044	1	25	IEV	POS	1	0.3300000000000000155						25	45017	1537	21	10
6.6.1	mac	0	2023-01-13	16:35:51	1	1	1	experiment	3	dispFeedback	1000	1	25	IEV	POS	1	0.3300000000000000155	117	1.0783034993549680536	126.6389310244446733122	117	0.2151496955694513491	25	45017	1654	21	10
6.6.1	mac	0	2023-01-13	16:35:51	1	1	1	experiment	3	experiment	424	1	64	IEV	POS	1	0.3300000000000000155						64	47464	1654	21	10
6.6.1	mac	0	2023-01-13	16:35:51	1	1	1	experiment	3	dispFeedback	1000	1	64	IEV	POS	1	0.3300000000000000155	294	0.9177942289126060915	269.5956793699612603632	294	0.4249049025645723621	64	47464	1948	21	10
6.6.1	mac	0	2023-01-13	16:35:51	1	1	1	endscreen	4	endscreen	3000	1	64	IEV	POS	1	0.3300000000000000155						64	47464	1948	21	
