build	computer.platform	computer.touch	date	time	subject	group	sessionid	blockcode	blocknum	trialcode	latency	randStart	startPos	scrfunc	rtvspos	randStart	circleproportion	mag	freq	ev	inc	rng	startPos	n_revolutions	totalPoints	totalEarnings	Earnings
6.6.1	mac	0	2023-01-17	16:29:18	1	1	1	instructions	1	instructions1	895	1	75	IEV	POS	1	0.3300000000000000155						75	0	0	0	
6.6.1	mac	0	2023-01-17	16:29:18	1	1	1	instructions	1	displayGoodJob	914	1	75	IEV	POS	1	0.3300000000000000155						75	0	0	0	
6.6.1	mac	0	2023-01-17	16:29:18	1	1	1	instructions	1	instructions3	462	1	75	IEV	POS	1	0.3300000000000000155						75	0	0	0	
6.6.1	mac	0	2023-01-17	16:29:18	1	1	1	instructions	1	countdown	1000	1	75	IEV	POS	1	0.3300000000000000155						75	0	0	0	
6.6.1	mac	0	2023-01-17	16:29:18	1	1	1	experiment	2	experiment	1779	1	48	DEV	POS	1	0.3300000000000000155						48	9386	0	0	
6.6.1	mac	0	2023-01-17	16:29:18	1	1	1	experiment	2	dispFeedback	1000	1	48	DEV	POS	1	0.3300000000000000155	62	0.7828776346309574974	48.1554322312377820481	62	0.3344234713200534559	48	9386	62	7	7
6.6.1	mac	0	2023-01-17	16:29:18	1	1	1	experiment	2	experiment	2478	1	38	DEV	POS	1	0.3300000000000000155						38	13885	62	7	7
6.6.1	mac	0	2023-01-17	16:29:18	1	1	1	experiment	2	dispFeedback	1000	1	38	DEV	POS	1	0.3300000000000000155	67	0.7324123501787368484	48.7133337941672053262	67	0.201831522677520192	38	13885	129	14	7
6.6.1	mac	0	2023-01-17	16:29:18	1	1	1	experiment	2	experiment	846	1	83	DEV	POS	1	0.3300000000000000155						83	16752	129	14	7
6.6.1	mac	0	2023-01-17	16:29:18	1	1	1	experiment	2	dispFeedback	1000	1	83	DEV	POS	1	0.3300000000000000155	71	0.5946884049052476584	41.9319571730572135948	71	0.2496846616849500433	83	16752	200	21	7
6.6.1	mac	0	2023-01-17	16:29:18	1	1	1	experiment	2	experiment	1884	1	49	DEV	POS	1	0.3300000000000000155						49	20657	200	21	7
6.6.1	mac	0	2023-01-17	16:29:18	1	1	1	experiment	2	dispFeedback	1000	1	49	DEV	POS	1	0.3300000000000000155	70	0.7433333463180602507	51.6696980597347703679	70	0.1980169883924575991	49	20657	270	28	7
6.6.1	mac	0	2023-01-17	16:29:18	1	1	1	experiment	2	experiment	1858	1	51	DEV	POS	1	0.3300000000000000155						51	24548	270	28	7
6.6.1	mac	0	2023-01-17	16:29:18	1	1	1	experiment	2	dispFeedback	1000	1	51	DEV	POS	1	0.3300000000000000155	64	0.7250461676288116886	46.0482645722592991433	64	0.3071196024089864474	51	24548	334	35	7
6.6.1	mac	0	2023-01-17	16:29:18	1	1	1	experiment	3	experiment	1085	1	31	CEV	POS	1	0.3300000000000000155						31	27673	334	35	7
6.6.1	mac	0	2023-01-17	16:29:18	1	1	1	experiment	3	dispFeedback	1000	1	31	CEV	POS	1	0.3300000000000000155	111	0.3449999999999999734	38.3799999999999954525	111	0.282483121445980645	31	27673	445	45	10
6.6.1	mac	0	2023-01-17	16:29:18	1	1	1	experiment	3	experiment	2422	1	73	CEV	POS	1	0.3300000000000000155						73	32145	445	45	10
6.6.1	mac	0	2023-01-17	16:29:18	1	1	1	experiment	3	dispFeedback	1000	1	73	CEV	POS	1	0.3300000000000000155	68	0.5682857142857142829	38.7048571428571435149	0	0.99137674108878171	73	32145	445	45	0
6.6.1	mac	0	2023-01-17	16:29:18	1	1	1	experiment	3	experiment	1467	1	13	CEV	POS	1	0.3300000000000000155						13	35655	445	45	0
6.6.1	mac	0	2023-01-17	16:29:18	1	1	1	experiment	3	dispFeedback	1000	1	13	CEV	POS	1	0.3300000000000000155	87	0.4190000000000000391	36.5810000000000030695	0	0.5532420195064605695	13	35655	445	45	0
6.6.1	mac	0	2023-01-17	16:29:18	1	1	1	experiment	3	experiment	1943	1	22	CEV	POS	1	0.3300000000000000155						22	39665	445	45	0
6.6.1	mac	0	2023-01-17	16:29:18	1	1	1	experiment	3	dispFeedback	1000	1	22	CEV	POS	1	0.3300000000000000155	133	0.2867142857142856993	38.1468571428571436854	0	0.4956706747169770666	22	39665	445	45	0
6.6.1	mac	0	2023-01-17	16:29:18	1	1	1	experiment	3	experiment	1812	1	56	CEV	POS	1	0.3300000000000000155						56	43499	445	45	0
6.6.1	mac	0	2023-01-17	16:29:18	1	1	1	experiment	3	dispFeedback	1000	1	56	CEV	POS	1	0.3300000000000000155	46	0.7768571428571429127	35.4462857142857146187	46	0.7758247965890506803	56	43499	491	50	5
6.6.1	mac	0	2023-01-17	16:29:18	1	1	1	endscreen	4	endscreen	2365	1	56	CEV	POS	1	0.3300000000000000155						56	43499	491	50	
