build	computer.platform	computer.touch	date	time	subject	group	sessionid	blockcode	blocknum	trialcode	latency	randStart	startPos	scrfunc	rtvspos	randStart	circleproportion	mag	freq	ev	inc	rng	startPos	n_revolutions	totalPoints
6.6.1	mac	0	2023-01-13	13:50:31	1	1	1	instructions	1	instructions1	541	1	75	DEV	POS	1	0.3300000000000000155						75	0	0
6.6.1	mac	0	2023-01-13	13:50:31	1	1	1	instructions	1	instructions2	212	1	75	DEV	POS	1	0.3300000000000000155						75	0	0
6.6.1	mac	0	2023-01-13	13:50:31	1	1	1	instructions	1	instructions3	268	1	75	DEV	POS	1	0.3300000000000000155						75	0	0
6.6.1	mac	0	2023-01-13	13:50:31	1	1	1	experiment	2	experiment	789	1	29	DEV	POS	1	0.3300000000000000155						29	2937	0
6.6.1	mac	0	2023-01-13	13:50:31	1	1	1	experiment	2	dispFeedback	1000	1	29	DEV	POS	1	0.3300000000000000155	63	0.3199460001744563464	20.0000814996633771159	63	0.2814618105258470671	29	2937	63
6.6.1	mac	0	2023-01-13	13:50:31	1	1	1	experiment	2	experiment	1063	1	98	DEV	POS	1	0.3300000000000000155						98	6025	63
6.6.1	mac	0	2023-01-13	13:50:31	1	1	1	experiment	2	dispFeedback	1000	1	98	DEV	POS	1	0.3300000000000000155	70	0.4402596647526362261	30.6028029797485174868	0	0.4847114380646290743	98	6025	63
6.6.1	mac	0	2023-01-13	13:50:31	1	1	1	experiment	2	experiment	811	1	43	DEV	POS	1	0.3300000000000000155						43	8856	63
6.6.1	mac	0	2023-01-13	13:50:31	1	1	1	experiment	2	dispFeedback	1000	1	43	DEV	POS	1	0.3300000000000000155	62	0.2629390264992428894	16.1735907521494972627	0	0.7979783862358840185	43	8856	63
6.6.1	mac	0	2023-01-13	13:50:31	1	1	1	experiment	2	experiment	1737	1	52	DEV	POS	1	0.3300000000000000155						52	12615	63
6.6.1	mac	0	2023-01-13	13:50:31	1	1	1	experiment	2	dispFeedback	1000	1	52	DEV	POS	1	0.3300000000000000155	62	0.7425843479613840614	45.6769597985629829395	62	0.429751347151992702	52	12615	125
6.6.1	mac	0	2023-01-13	13:50:31	1	1	1	experiment	2	experiment	1122	1	0	DEV	POS	1	0.3300000000000000155						0	15767	125
6.6.1	mac	0	2023-01-13	13:50:31	1	1	1	experiment	2	dispFeedback	1000	1	0	DEV	POS	1	0.3300000000000000155	62	0.4213105924596859397	25.915153002242600877	0	0.9818875843151211313	0	15767	125
6.6.1	mac	0	2023-01-13	13:50:31	1	1	1	experiment	3	experiment	803	1	72	DEV	POS	1	0.3300000000000000155						72	18614	125
6.6.1	mac	0	2023-01-13	13:50:31	1	1	1	experiment	3	dispFeedback	1000	1	72	DEV	POS	1	0.3300000000000000155	68	0.7262693198366568792	49.0310252309460281595	68	0.0400859112944653984	72	18614	193
6.6.1	mac	0	2023-01-13	13:50:31	1	1	1	experiment	3	experiment	1057	1	85	DEV	POS	1	0.3300000000000000155						85	21717	193
6.6.1	mac	0	2023-01-13	13:50:31	1	1	1	experiment	3	dispFeedback	1000	1	85	DEV	POS	1	0.3300000000000000155	65	0.5370524752004579572	34.6456866165205994434	0	0.8046974972367048062	85	21717	193
6.6.1	mac	0	2023-01-13	13:50:31	1	1	1	experiment	3	experiment	1891	1	29	DEV	POS	1	0.3300000000000000155						29	25653	193
6.6.1	mac	0	2023-01-13	13:50:31	1	1	1	experiment	3	dispFeedback	1000	1	29	DEV	POS	1	0.3300000000000000155	67	0.2286298313703674645	15.2063537543174067679	0	0.3448422326112264291	29	25653	193
6.6.1	mac	0	2023-01-13	13:50:31	1	1	1	experiment	3	experiment	855	1	83	DEV	POS	1	0.3300000000000000155						83	28532	193
6.6.1	mac	0	2023-01-13	13:50:31	1	1	1	experiment	3	dispFeedback	1000	1	83	DEV	POS	1	0.3300000000000000155	68	0.5929091692609955722	40.0277743306482847174	68	0.3303610906774087641	83	28532	261
6.6.1	mac	0	2023-01-13	13:50:31	1	1	1	experiment	3	experiment	1491	1	52	DEV	POS	1	0.3300000000000000155						52	32067	261
6.6.1	mac	0	2023-01-13	13:50:31	1	1	1	experiment	3	dispFeedback	1000	1	52	DEV	POS	1	0.3300000000000000155	65	0.8060353872508577711	51.9979903604310393916	65	0.5833230115434441254	52	32067	326
6.6.1	mac	0	2023-01-13	13:50:31	1	1	1	endscreen	4	endscreen	1566	1	52	DEV	POS	1	0.3300000000000000155						52	32067	326
