build	computer.platform	computer.touch	date	time	subject	group	sessionid	blockcode	blocknum	trialcode	latency	randStart	startPos	scrfunc	rtvspos	randStart	circleproportion	mag	freq	ev	inc	rng	startPos	n_revolutions	totalPoints	totalEarnings	Earnings
6.6.1	mac	0	2023-01-17	11:23:34	1	1	1	instructions	1	instructions1	666	1	75	IEV	POS	1	0.3300000000000000155						75	0	0	0	
6.6.1	mac	0	2023-01-17	11:23:34	1	1	1	instructions	1	displayGoodJob	943	1	75	IEV	POS	1	0.3300000000000000155						75	0	0	0	
6.6.1	mac	0	2023-01-17	11:23:34	1	1	1	instructions	1	instructions3	1652	1	75	IEV	POS	1	0.3300000000000000155						75	0	0	0	
6.6.1	mac	0	2023-01-17	11:23:34	1	1	1	instructions	1	countdown	1000	1	75	IEV	POS	1	0.3300000000000000155						75	0	0	0	
6.6.1	mac	0	2023-01-17	11:23:34	1	1	1	experiment	2	experiment	1252	1	81	IEV	POS	1	0.3300000000000000155						81	11925	0	0	
6.6.1	mac	0	2023-01-17	11:23:34	1	1	1	experiment	2	dispFeedback	1000	1	81	IEV	POS	1	0.3300000000000000155	42	1.0862519075676737579	45.1747884843997553617	42	0.0850510271464127582	81	11925	42	5	5
6.6.1	mac	0	2023-01-17	11:23:34	1	1	1	experiment	2	experiment	1567	1	16	IEV	POS	1	0.3300000000000000155						16	15524	42	5	5
6.6.1	mac	0	2023-01-17	11:23:34	1	1	1	experiment	2	dispFeedback	1000	1	16	IEV	POS	1	0.3300000000000000155	126	1.0718236861968852836	134.5746004822218822028	126	0.8129277047265618394	16	15524	168	5	5
6.6.1	mac	0	2023-01-17	11:23:34	1	1	1	experiment	2	experiment	1406	1	83	IEV	POS	1	0.3300000000000000155						83	18963	168	5	5
6.6.1	mac	0	2023-01-17	11:23:34	1	1	1	experiment	2	dispFeedback	1000	1	83	IEV	POS	1	0.3300000000000000155	49	1.103945798020406599	53.8217669867225296798	49	0.3339188083386790962	83	18963	217	11	6
6.6.1	mac	0	2023-01-17	11:23:34	1	1	1	experiment	2	experiment	1715	1	32	IEV	POS	1	0.3300000000000000155						32	22706	217	11	6
6.6.1	mac	0	2023-01-17	11:23:34	1	1	1	experiment	2	dispFeedback	1000	1	32	IEV	POS	1	0.3300000000000000155	232	0.9607338662536116791	222.9366358788242052924	232	0.1936796536188758189	32	22706	449	11	6
6.6.1	mac	0	2023-01-17	11:23:34	1	1	1	experiment	2	experiment	2461	1	19	IEV	POS	1	0.3300000000000000155						19	27202	449	11	6
6.6.1	mac	0	2023-01-17	11:23:34	1	1	1	experiment	2	dispFeedback	1000	1	19	IEV	POS	1	0.3300000000000000155	255	0.9475634322995433179	241.1885949281737850924	255	0.0875469900405842355	19	27202	704	11	6
6.6.1	mac	0	2023-01-17	11:23:34	1	1	1	experiment	3	experiment	3608	1	92	IEV	POS	1	0.3300000000000000155						92	32849	704	11	6
6.6.1	mac	0	2023-01-17	11:23:34	1	1	1	experiment	3	dispFeedback	1000	1	92	IEV	POS	1	0.3300000000000000155	220	0.975150962613753669	214.2458017670016374723	220	0.3251575490751205111	92	32849	924	11	6
6.6.1	mac	0	2023-01-17	11:23:34	1	1	1	experiment	3	experiment	709	1	25	IEV	POS	1	0.3300000000000000155						25	35584	924	11	6
6.6.1	mac	0	2023-01-17	11:23:34	1	1	1	experiment	3	dispFeedback	1000	1	25	IEV	POS	1	0.3300000000000000155	99	1.1030410964486154768	109.281042362297128534	99	0.5466342110993885894	25	35584	1023	20	9
6.6.1	mac	0	2023-01-17	11:23:34	1	1	1	experiment	3	experiment	406	1	65	IEV	POS	1	0.3300000000000000155						65	38015	1023	20	9
6.6.1	mac	0	2023-01-17	11:23:34	1	1	1	experiment	3	dispFeedback	1000	1	65	IEV	POS	1	0.3300000000000000155	308	0.9132812122769143892	281.3652614297774903207	0	0.9480637451512887726	65	38015	1023	20	0
6.6.1	mac	0	2023-01-17	11:23:34	1	1	1	experiment	3	experiment	2804	1	85	IEV	POS	1	0.3300000000000000155						85	42846	1023	20	0
6.6.1	mac	0	2023-01-17	11:23:34	1	1	1	experiment	3	dispFeedback	1000	1	85	IEV	POS	1	0.3300000000000000155	103	1.0968959552987640471	113.4041162172769503513	103	0.6513813840344970796	85	42846	1126	30	10
6.6.1	mac	0	2023-01-17	11:23:34	1	1	1	experiment	3	experiment	1746	1	9	IEV	POS	1	0.3300000000000000155						9	46622	1126	30	10
6.6.1	mac	0	2023-01-17	11:23:34	1	1	1	experiment	3	dispFeedback	1000	1	9	IEV	POS	1	0.3300000000000000155	117	1.0864103918063863219	127.0978983068036001214	117	0.3466693473389999558	9	46622	1243	30	10
6.6.1	mac	0	2023-01-17	11:23:34	1	1	1	endscreen	4	endscreen	2579	1	9	IEV	POS	1	0.3300000000000000155						9	46622	1243	30	
