build	computer.platform	computer.touch	date	time	subject	group	sessionid	blockcode	blocknum	trialcode	preClockFreezeBlock	list.preClockFreeze.currentvalue	latency	list.ISI.currentvalue	list.ITI.currentvalue	trial.instructions5_1.response	trial.instructions5_2.response	startPos	scrfunc	rtvspos	randStart	mag	freq	ev	inc	inc_rg	rng	fogPos1	fogPos3	fogPos5	fogPos_out	list.wind_size.currentvalue	windPos2	windPos4	windPos6	windPos_out	chooseFog1	chooseWind2	chooseFog3	chooseWind4	chooseFog5	chooseWind6	choose_unc_att1	choose_unc_att_out1	choose_unc_att2	choose_unc_att_out2	choose_unc_att3	choose_unc_att_out3	choose_unc_att4	choose_unc_att_out4	unc_att_count1	unc_att_count_out1	unc_att_count2	unc_att_count_out2	unc_att_count3	unc_att_count_out3	unc_att_count4	unc_att_count_out4	unc_att_count5	unc_att_count_out5	unc_att_count6	unc_att_count_out6	chooseAttentionalControl	chooseUncertainty	blockCount	ntrials	trialCount	meta_trialCount	attentional_control	local_uncertainty	unc_att_start1	unc_att_start2	unc_att_start3	unc_att_start4	unc_att_start5	unc_att_start6	unc_att_block	list.rt_0.currentindex	rt_shifted	pos_shifted	totalPoints	totalEarnings	Earnings
6.6.1	mac	0	2023-09-15	20:28:58	1	1	1	experiment	1	experiment_noU	2	750	261	240	140			93	dynamic	POS	1							35	40	5			1	45	2		0	0	0	0	0	0	0	0	0	0	0	0	0	0	0	0	0	0	0	0	0	0	0	0	0	0	0	0	1	45	1	1	cloud	wind	6	16	26	35	0	0	0	1			0	0	
6.6.1	mac	0	2023-09-15	20:28:58	1	1	1	experiment	1	dispFeedback_noU	2	750	1000	240	140			93	dynamic	POS	1	8	0.6999999999999999556	5.5999999999999996447	1	10	0.9567849789645488379	35	40	5			1	45	2		0	0	0	0	0	0	0	0	0	0	0	0	0	0	0	0	0	0	0	0	0	0	0	0	0	0	0	0	1	45	1	1	cloud	wind	6	16	26	35	0	0	0	1	1161	83.5919999999999987494	1	0	10
6.6.1	mac	0	2023-09-15	20:28:58	1	1	1	experiment	1	experiment_noU	2	750	407	470	480			55	dynamic	POS	1					10		35	40	5			1	45	2		0	0	0	0	0	0	0	0	0	0	0	0	0	0	0	0	0	0	0	0	0	0	0	0	0	0	0	0	1	45	2	2	cloud	wind	6	16	26	35	0	0	0	2	1161	83.5919999999999987494	1	0	10
6.6.1	mac	0	2023-09-15	20:28:58	1	1	1	experiment	1	dispFeedback_noU	2	750	1000	470	480			55	dynamic	POS	1	16	0.6999999999999999556	11.1999999999999992895	1	10	0.7960701290974556699	35	40	5			1	45	2		0	0	0	0	0	0	0	0	0	0	0	0	0	0	0	0	0	0	0	0	0	0	0	0	0	0	0	0	1	45	2	2	cloud	wind	6	16	26	35	0	0	0	2	4407	317.3039999999999736247	2	0	10
6.6.1	mac	0	2023-09-15	20:28:58	1	1	1	experiment	1	experiment_noU	2	750	497	310	340			47	dynamic	POS	1					10		35	40	5			1	45	2		0	0	0	0	0	0	0	0	0	0	0	0	0	0	0	0	0	0	0	0	0	0	0	0	0	0	0	0	1	45	3	3	cloud	wind	6	16	26	35	0	0	0	3	4407	317.3039999999999736247	2	0	10
6.6.1	mac	0	2023-09-15	20:28:58	1	1	1	experiment	1	dispFeedback_noU	2	750	1000	310	340			47	dynamic	POS	1	6	0.6999999999999999556	4.1999999999999992895	1	10	0.8496155477710104487	35	40	5			1	45	2		0	0	0	0	0	0	0	0	0	0	0	0	0	0	0	0	0	0	0	0	0	0	0	0	0	0	0	0	1	45	3	3	cloud	wind	6	16	26	35	0	0	0	3	4097	294.9839999999999804459	3	0	10
6.6.1	mac	0	2023-09-15	20:28:58	1	1	1	experiment	1	experiment_noU	2	750	427	580	150			94	dynamic	POS	1					10		35	40	5			1	45	2		0	0	0	0	0	0	0	0	0	0	0	0	0	0	0	0	0	0	0	0	0	0	0	0	0	0	0	0	1	45	4	4	cloud	wind	6	16	26	35	0	0	0	4	4097	294.9839999999999804459	3	0	10
6.6.1	mac	0	2023-09-15	20:28:58	1	1	1	experiment	1	dispFeedback_noU	2	750	1000	580	150			94	dynamic	POS	1	15	0.6999999999999999556	10.5	15	16	0.6568509479185684619	35	40	5			1	45	2		0	0	0	0	0	0	0	0	0	0	0	0	0	0	0	0	0	0	0	0	0	0	0	0	0	0	0	0	1	45	4	4	cloud	wind	6	16	26	35	0	0	0	4	1377	99.144000000000005457	18	0	16
6.6.1	mac	0	2023-09-15	20:28:58	1	1	1	experiment	1	experiment_U	2	750	759	570	300			18	dynamic	POS	1					16		35	40	5	120	30pct	1	45	2		0	0	0	0	0	0	0	0	0	0	0	0	0	0	0	1	0	0	0	0	0	0	0	0	0	0	0	0	1	45	6	5	cloud	wind	6	16	26	35	0	0	1	5	1377	99.144000000000005457	18	0	16
6.6.1	mac	0	2023-09-15	20:28:58	1	1	1	experiment	1	dispFeedback_U	2	750	1000	570	300			18	dynamic	POS	1	122	0.6999999999999999556	85.3999999999999914735	122	104	0.0051080854621501836	35	40	5	120	30pct	1	45	2		0	0	0	0	0	0	0	0	0	0	0	0	0	0	1	1	0	0	0	0	0	0	0	0	0	0	0	0	1	45	6	5	cloud	wind	6	16	26	35	0	0	1	5	2909	209.4480000000000075033	140	0	104
6.6.1	mac	0	2023-09-15	20:28:58	1	1	1	experiment	1	experiment_U	2	750	1103	530	290			85	dynamic	POS	1					104		35	40	5	120	30pct	1	45	2		0	0	0	0	0	0	0	0	0	0	0	0	0	0	1	2	0	0	0	0	0	0	0	0	0	0	0	0	1	45	8	6	cloud	wind	6	16	26	35	0	0	1	6	2909	209.4480000000000075033	140	0	104
6.6.1	mac	0	2023-09-15	20:28:58	1	1	1	experiment	1	dispFeedback_U	2	750	1000	530	290			85	dynamic	POS	1	33	0.6999999999999999556	23.0999999999999978684	33	32	0.2602355173463550275	35	40	5	120	30pct	1	45	2		1	0	0	0	0	0	1	1	0	0	0	0	0	0	2	2	0	0	0	0	0	0	0	0	0	0	1	0	1	45	8	6	cloud	wind	6	16	26	35	0	0	1	6	1603	115.4159999999999968168	173	0	32
6.6.1	mac	0	2023-09-15	20:28:58	1	1	1	experiment	1	experiment_U	2	750	5037	380	130			7	dynamic	POS	1					32		35	40	5	120	30pct	1	45	2		1	0	0	0	0	0	1	0	0	0	0	0	0	0	2	3	0	0	0	0	0	0	0	0	0	0	0	0	1	45	10	7	cloud	wind	6	16	26	35	0	0	1	7	1603	115.4159999999999968168	173	0	32
6.6.1	mac	0	2023-09-15	20:28:58	1	1	1	experiment	1	dispFeedback_U	2	750	1000	380	130			7	dynamic	POS	1	21	0.6999999999999999556	14.6999999999999992895	21	18	0.3232463221818316357	35	40	5	120	30pct	1	45	2		1	0	0	0	0	0	2	1	0	0	0	0	0	0	3	3	0	0	0	0	0	0	0	0	0	0	1	0	1	45	10	7	cloud	wind	6	16	26	35	0	0	1	7	1637	117.8640000000000043201	194	0	18
6.6.1	mac	0	2023-09-15	20:28:58	1	1	1	experiment	1	experiment_noU	2	750	630	200	250			26	dynamic	POS	1					18		35	40	5		30pct	1	45	2		0	0	0	0	0	0	2	0	0	0	0	0	0	0	3	0	0	0	0	0	0	0	0	0	0	0	0	0	1	45	11	8	cloud	wind	6	12	26	35	0	0	0	8	1637	117.8640000000000043201	194	0	18
6.6.1	mac	0	2023-09-15	20:28:58	1	1	1	experiment	1	dispFeedback_noU	2	750	1000	200	250			26	dynamic	POS	1	78	0.6999999999999999556	54.5999999999999943157	78	84	0.6408092688398456804	35	40	5		30pct	1	45	2		0	0	0	0	0	0	2	0	0	0	0	0	0	0	3	0	0	0	0	0	0	0	0	0	0	0	0	0	1	45	11	8	cloud	wind	6	12	26	35	0	0	0	8	3180	228.9600000000000079581	272	0	84
6.6.1	mac	0	2023-09-15	20:28:58	1	1	1	experiment	1	experiment_U	2	750	2968	450	310			14	dynamic	POS	1					84		35	40	5		30pct	1	45	2	360	0	0	0	0	0	0	2	0	0	0	0	0	0	0	3	0	0	1	0	0	0	0	0	0	0	0	0	0	1	45	13	9	cloud	wind	6	12	26	35	0	0	2	9	3180	228.9600000000000079581	272	0	84
6.6.1	mac	0	2023-09-15	20:28:58	1	1	1	experiment	1	dispFeedback_U	2	750	1000	450	310			14	dynamic	POS	1	25	0.6999999999999999556	17.5	25	25	0.1773440798691809372	35	40	5		30pct	1	45	2	360	0	1	0	0	0	0	2	0	1	1	0	0	0	0	3	0	1	1	0	0	0	0	0	0	0	0	0	1	1	45	13	9	cloud	wind	6	12	26	35	0	0	2	9	4918	354.096000000000003638	297	0	25
6.6.1	mac	0	2023-09-15	20:28:58	1	1	1	experiment	1	experiment_U	2	750	1531	540	180			44	dynamic	POS	1					25		35	40	5		30pct	1	45	2	360	0	1	0	0	0	0	2	0	1	0	0	0	0	0	3	0	1	2	0	0	0	0	0	0	0	0	0	0	1	45	15	10	cloud	wind	6	12	26	35	0	0	2	10	4918	354.096000000000003638	297	0	25
6.6.1	mac	0	2023-09-15	20:28:58	1	1	1	experiment	1	dispFeedback_U	2	750	1000	540	180			44	dynamic	POS	1	25	0.6999999999999999556	17.5	25	28	0.6671854785334284665	35	40	5		30pct	1	45	2	360	0	1	0	0	0	0	2	0	2	1	0	0	0	0	3	0	2	2	0	0	0	0	0	0	0	0	0	1	1	45	15	10	cloud	wind	6	12	26	35	0	0	2	10	4981	358.6320000000000050022	322	0	28
6.6.1	mac	0	2023-09-15	20:28:58	1	1	1	experiment	1	experiment_noU	2	750	4500	430	270			47	dynamic	POS	1					28		35	40	5		30pct	1	45	2		0	0	0	0	0	0	2	0	2	0	0	0	0	0	3	0	2	0	0	0	0	0	0	0	0	0	0	0	1	45	16	11	cloud	wind	6	12	19	35	0	0	0	11	4981	358.6320000000000050022	322	0	28
6.6.1	mac	0	2023-09-15	20:28:58	1	1	1	experiment	1	dispFeedback_noU	2	750	1000	430	270			47	dynamic	POS	1	147	0.6999999999999999556	102.8999999999999914735	1	10	0.9803564499552259726	35	40	5		30pct	1	45	2		0	0	0	0	0	0	2	0	2	0	0	0	0	0	3	0	2	0	0	0	0	0	0	0	0	0	0	0	1	45	16	11	cloud	wind	6	12	19	35	0	0	0	11	3100	223.1999999999999886313	323	0	10
6.6.1	mac	0	2023-09-15	20:28:58	1	1	1	experiment	1	experiment_noU	2	750	4171	230	410			53	dynamic	POS	1					10		35	40	5		30pct	1	45	2		0	0	0	0	0	0	2	0	2	0	0	0	0	0	3	0	2	0	0	0	0	0	0	0	0	0	0	0	1	45	17	12	cloud	wind	6	12	19	35	0	0	0	12	3100	223.1999999999999886313	323	0	10
6.6.1	mac	0	2023-09-15	20:28:58	1	1	1	experiment	1	dispFeedback_noU	2	750	1000	230	410			53	dynamic	POS	1	158	0.6999999999999999556	110.5999999999999943157	158	137	0.1879168146261751549	35	40	5		30pct	1	45	2		0	0	0	0	0	0	2	0	2	0	0	0	0	0	3	0	2	0	0	0	0	0	0	0	0	0	0	0	1	45	17	12	cloud	wind	6	12	19	35	0	0	0	12	3071	221.1119999999999947704	481	0	137
6.6.1	mac	0	2023-09-15	20:28:58	1	1	1	experiment	1	experiment_U	2	750	513	480	450			98	dynamic	POS	1					137		35	40	5	90	30pct	1	45	2		0	0	0	0	0	0	2	0	2	0	0	0	0	0	3	0	2	0	0	1	0	0	0	0	0	0	0	0	1	45	19	13	cloud	wind	6	12	19	35	0	0	3	13	3071	221.1119999999999947704	481	0	137
6.6.1	mac	0	2023-09-15	20:28:58	1	1	1	experiment	1	dispFeedback_U	2	750	1000	480	450			98	dynamic	POS	1	8	0.6999999999999999556	5.5999999999999996447	1	10	0.7396246196561550024	35	40	5	90	30pct	1	45	2		0	0	0	0	0	0	2	0	2	0	0	0	0	0	3	0	2	0	1	1	0	0	0	0	0	0	0	0	1	45	19	13	cloud	wind	6	12	19	35	0	0	3	13	1663	119.7360000000000042064	482	0	10
6.6.1	mac	0	2023-09-15	20:28:58	1	1	1	experiment	1	experiment_U	2	750	486	390	190			89	dynamic	POS	1					10		35	40	5	90	30pct	1	45	2		0	0	0	0	0	0	2	0	2	0	0	0	0	0	3	0	2	0	1	2	0	0	0	0	0	0	0	0	1	45	21	14	cloud	wind	6	12	19	35	0	0	3	14	1663	119.7360000000000042064	482	0	10
6.6.1	mac	0	2023-09-15	20:28:58	1	1	1	experiment	1	dispFeedback_U	2	750	1000	390	190			89	dynamic	POS	1	6	0.6999999999999999556	4.1999999999999992895	1	10	0.7704123965861304768	35	40	5	90	30pct	1	45	2		0	0	0	0	0	0	2	0	2	0	0	0	0	0	3	0	2	0	2	2	0	0	0	0	0	0	0	0	1	45	21	14	cloud	wind	6	12	19	35	0	0	3	14	1186	85.3919999999999959073	483	0	10
6.6.1	mac	0	2023-09-15	20:28:58	1	1	1	experiment	1	experiment_U	2	750	2294	330	200			54	dynamic	POS	1					10		35	40	5	90	30pct	1	45	2		0	0	0	0	0	0	2	0	2	0	0	0	0	0	3	0	2	0	2	3	0	0	0	0	0	0	0	0	1	45	23	15	cloud	wind	6	12	19	35	0	0	3	15	1186	85.3919999999999959073	483	0	10
6.6.1	mac	0	2023-09-15	20:28:58	1	1	1	experiment	1	dispFeedback_U	2	750	1000	330	200			54	dynamic	POS	1	7	0.6999999999999999556	4.8999999999999994671	7	10	0.0540863589975252648	35	40	5	90	30pct	1	45	2		0	0	0	0	0	0	2	0	2	0	0	0	0	0	3	0	2	0	3	3	0	0	0	0	0	0	0	0	1	45	23	15	cloud	wind	6	12	19	35	0	0	3	15	1244	89.56799999999999784	490	0	10
6.6.1	mac	0	2023-09-15	20:28:58	1	1	1	experiment	1	experiment_U	2	750	3652	490	440			25	dynamic	POS	1					10		35	40	5	90	30pct	1	45	2		0	0	0	0	0	0	2	0	2	0	0	0	0	0	3	0	2	0	3	4	0	0	0	0	0	0	0	0	1	45	25	16	cloud	wind	6	12	19	35	0	0	3	16	1244	89.56799999999999784	490	0	10
6.6.1	mac	0	2023-09-15	20:28:58	1	1	1	experiment	1	dispFeedback_U	2	750	1000	490	440			25	dynamic	POS	1	9	0.6999999999999999556	6.2999999999999998224	1	10	0.7232680310782203525	35	40	5	90	30pct	1	45	2		0	0	0	0	0	0	2	0	2	0	0	0	0	0	3	0	2	0	4	4	0	0	0	0	0	0	0	0	1	45	25	16	cloud	wind	6	12	19	35	0	0	3	16	1152	82.9440000000000026148	491	0	10
6.6.1	mac	0	2023-09-15	20:28:58	1	1	1	experiment	1	experiment_noU	2	750	1420	440	360			6	dynamic	POS	1					10		35	40	5		30pct	1	45	2		0	0	0	0	0	0	2	0	2	0	0	0	0	0	3	0	2	0	4	0	0	0	0	0	0	0	0	0	1	45	26	17	cloud	wind	6	12	19	35	0	0	0	17	1152	82.9440000000000026148	491	0	10
6.6.1	mac	0	2023-09-15	20:28:58	1	1	1	experiment	1	dispFeedback_noU	2	750	1000	440	360			6	dynamic	POS	1	113	0.6999999999999999556	79.0999999999999943157	113	120	0.6050372781709388859	35	40	5		30pct	1	45	2		0	0	0	0	0	0	2	0	2	0	0	0	0	0	3	0	2	0	4	0	0	0	0	0	0	0	0	0	1	45	26	17	cloud	wind	6	12	19	35	0	0	0	17	2970	213.8400000000000034106	604	0	120
6.6.1	mac	0	2023-09-15	20:28:58	1	1	1	experiment	1	experiment_noU	2	750	1741	270	100			99	dynamic	POS	1					120		35	40	5		30pct	1	45	2		0	0	0	0	0	0	2	0	2	0	0	0	0	0	3	0	2	0	4	0	0	0	0	0	0	0	0	0	1	45	27	18	cloud	wind	6	12	19	35	0	0	0	18	2970	213.8400000000000034106	604	0	120
6.6.1	mac	0	2023-09-15	20:28:58	1	1	1	experiment	1	dispFeedback_noU	2	750	1000	270	100			99	dynamic	POS	1	105	0.6999999999999999556	73.5	105	97	0.4486495455374591157	35	40	5		30pct	1	45	2		0	0	0	0	0	0	2	0	2	0	0	0	0	0	3	0	2	0	4	0	0	0	0	0	0	0	0	0	1	45	27	18	cloud	wind	6	12	19	35	0	0	0	18	2941	211.7520000000000095497	709	0	97
6.6.1	mac	0	2023-09-15	20:28:58	1	1	1	experiment	1	experiment_noU	2	750	577	590	260			46	dynamic	POS	1					97		35	40	5		30pct	1	45	2		0	0	0	0	0	0	2	0	2	0	0	0	0	0	3	0	2	0	4	0	0	0	0	0	0	0	0	0	1	45	28	19	cloud	wind	6	12	19	35	0	0	0	19	2941	211.7520000000000095497	709	0	97
6.6.1	mac	0	2023-09-15	20:28:58	1	1	1	experiment	1	dispFeedback_noU	2	750	1000	590	260			46	dynamic	POS	1	4	0.6999999999999999556	2.7999999999999998224	4	3	0.1356756531483669925	35	40	5		30pct	1	45	2		0	0	0	0	0	0	2	0	2	0	0	0	0	0	3	0	2	0	4	0	0	0	0	0	0	0	0	0	1	45	28	19	cloud	wind	6	12	19	35	0	0	0	19	4127	297.144000000000005457	713	0	3
6.6.1	mac	0	2023-09-15	20:28:58	1	1	1	experiment	1	experiment_noU	2	750	360	510	390			64	dynamic	POS	1					3		35	40	5		30pct	1	45	2		0	0	0	0	0	0	2	0	2	0	0	0	0	0	3	0	2	0	4	0	0	0	0	0	0	0	0	0	1	45	29	20	cloud	wind	6	12	19	35	0	0	0	20	4127	297.144000000000005457	713	0	3
6.6.1	mac	0	2023-09-15	20:28:58	1	1	1	experiment	1	dispFeedback_noU	2	750	1000	510	390			64	dynamic	POS	1	28	0.6999999999999999556	19.5999999999999978684	28	31	0.5163646416078239154	35	40	5		30pct	1	45	2		0	0	0	0	0	0	2	0	2	0	0	0	0	0	3	0	2	0	4	0	0	0	0	0	0	0	0	0	1	45	29	20	cloud	wind	6	12	19	35	0	0	0	20	4810	346.3199999999999931788	741	0	31
6.6.1	mac	0	2023-09-15	20:28:58	1	1	1	experiment	1	experiment_noU	2	750	505	500	430			14	dynamic	POS	1					31		35	40	5		30pct	1	45	2		0	0	0	0	0	0	2	0	2	0	0	0	0	0	3	0	2	0	4	0	0	0	0	0	0	0	0	0	1	45	30	21	cloud	wind	6	12	19	35	0	0	0	21	4810	346.3199999999999931788	741	0	31
6.6.1	mac	0	2023-09-15	20:28:58	1	1	1	experiment	1	dispFeedback_noU	2	750	1000	500	430			14	dynamic	POS	1	161	0.6999999999999999556	112.6999999999999886313	161	168	0.2709525991862063998	35	40	5		30pct	1	45	2		0	0	0	0	0	0	2	0	2	0	0	0	0	0	3	0	2	0	4	0	0	0	0	0	0	0	0	0	1	45	30	21	cloud	wind	6	12	19	35	0	0	0	21	2455	176.7599999999999909051	902	0	168
6.6.1	mac	0	2023-09-15	20:28:58	1	1	1	experiment	1	experiment_noU	2	750	1158	600	460			9	dynamic	POS	1					168		35	40	5		30pct	1	45	2		0	0	0	0	0	0	2	0	2	0	0	0	0	0	3	0	2	0	4	0	0	0	0	0	0	0	0	0	1	45	31	22	cloud	wind	6	12	19	35	0	0	0	22	2455	176.7599999999999909051	902	0	168
6.6.1	mac	0	2023-09-15	20:28:58	1	1	1	experiment	1	dispFeedback_noU	2	750	1000	600	460			9	dynamic	POS	1	127	0.6999999999999999556	88.8999999999999914735	1	10	0.9862672984568092716	35	40	5		30pct	1	45	2		0	0	0	0	0	0	2	0	2	0	0	0	0	0	3	0	2	0	4	0	0	0	0	0	0	0	0	0	1	45	31	22	cloud	wind	6	12	19	35	0	0	0	22	2858	205.7760000000000104592	903	0	10
6.6.1	mac	0	2023-09-15	20:28:58	1	1	1	experiment	1	experiment_noU	2	750	328	290	160			54	dynamic	POS	1					10		35	40	5		30pct	1	45	2		0	0	0	0	0	0	2	0	2	0	0	0	0	0	3	0	2	0	4	0	0	0	0	0	0	0	0	0	1	45	32	23	cloud	wind	6	12	19	35	0	0	0	23	2858	205.7760000000000104592	903	0	10
6.6.1	mac	0	2023-09-15	20:28:58	1	1	1	experiment	1	dispFeedback_noU	2	750	1000	290	160			54	dynamic	POS	1	6	0.6999999999999999556	4.1999999999999992895	6	10	0.4153522135259937742	35	40	5		30pct	1	45	2		0	0	0	0	0	0	2	0	2	0	0	0	0	0	3	0	2	0	4	0	0	0	0	0	0	0	0	0	1	45	32	23	cloud	wind	6	12	19	35	0	0	0	23	4278	308.0160000000000195541	909	0	10
6.6.1	mac	0	2023-09-15	20:28:58	1	1	1	experiment	1	experiment_noU	2	750	490	550	370			76	dynamic	POS	1					10		35	40	5		30pct	1	45	2		0	0	0	0	0	0	2	0	2	0	0	0	0	0	3	0	2	0	4	0	0	0	0	0	0	0	0	0	1	45	33	24	cloud	wind	6	12	19	35	0	0	0	24	4278	308.0160000000000195541	909	0	10
6.6.1	mac	0	2023-09-15	20:28:58	1	1	1	experiment	1	dispFeedback_noU	2	750	1000	550	370			76	dynamic	POS	1	35	0.6999999999999999556	24.5	35	34	0.1574788927467258015	35	40	5		30pct	1	45	2		0	0	0	0	0	0	2	0	2	0	0	0	0	0	3	0	2	0	4	0	0	0	0	0	0	0	0	0	1	45	33	24	cloud	wind	6	12	19	35	0	0	0	24	540	38.880000000000002558	944	0	34
6.6.1	mac	0	2023-09-15	20:28:58	1	1	1	experiment	1	experiment_U	2	750	3870	360	400			14	dynamic	POS	1					34		35	40	5		25pct	1	45	2	60	0	0	0	0	0	0	2	0	2	0	0	0	0	0	3	0	2	0	4	0	0	1	0	0	0	0	0	0	1	45	35	25	cloud	wind	6	12	19	35	0	0	4	25	540	38.880000000000002558	944	0	34
6.6.1	mac	0	2023-09-15	20:28:58	1	1	1	experiment	1	dispFeedback_U	2	750	1000	360	400			14	dynamic	POS	1	19	0.6999999999999999556	13.2999999999999989342	1	10	0.9918879528976716209	35	40	5		25pct	1	45	2	60	0	0	0	1	0	0	2	0	2	0	0	0	1	1	3	0	2	0	4	0	1	1	0	0	0	0	0	1	1	45	35	25	cloud	wind	6	12	19	35	0	0	4	25	820	59.0399999999999991473	945	0	10
6.6.1	mac	0	2023-09-15	20:28:58	1	1	1	experiment	1	experiment_U	2	750	1901	320	350			53	dynamic	POS	1					10		35	40	5		25pct	1	45	2	60	0	0	0	1	0	0	2	0	2	0	0	0	1	0	3	0	2	0	4	0	1	2	0	0	0	0	0	0	1	45	37	26	cloud	wind	6	12	19	35	0	0	4	26	820	59.0399999999999991473	945	0	10
6.6.1	mac	0	2023-09-15	20:28:58	1	1	1	experiment	1	dispFeedback_U	2	750	1000	320	350			53	dynamic	POS	1	35	0.6999999999999999556	24.5	35	31	0.2033351490281836982	35	40	5		25pct	1	45	2	60	0	0	0	1	0	0	2	0	2	0	0	0	2	1	3	0	2	0	4	0	2	2	0	0	0	0	0	1	1	45	37	26	cloud	wind	6	12	19	35	0	0	4	26	801	57.6719999999999970441	980	0	31
6.6.1	mac	0	2023-09-15	20:28:58	1	1	1	experiment	1	experiment_noU	2	750	404	280	210			72	dynamic	POS	1					31		35	40	5		25pct	1	45	2		0	0	0	1	0	0	2	0	2	0	0	0	2	0	3	0	2	0	4	0	2	0	0	0	0	0	0	0	1	45	38	27	cloud	wind	6	12	19	35	0	0	0	27	801	57.6719999999999970441	980	0	31
6.6.1	mac	0	2023-09-15	20:28:58	1	1	1	experiment	1	dispFeedback_noU	2	750	1000	280	210			72	dynamic	POS	1	40	0.6999999999999999556	28	40	34	0.0071857823075693527	35	40	5		25pct	1	45	2		0	0	0	1	0	0	2	0	2	0	0	0	2	0	3	0	2	0	4	0	2	0	0	0	0	0	0	0	1	45	38	27	cloud	wind	6	12	19	35	0	0	0	27	254	18.2880000000000002558	1020	0	34
6.6.1	mac	0	2023-09-15	20:28:58	1	1	1	experiment	1	experiment_noU	2	750	417	210	220			34	dynamic	POS	1					34		35	40	5		25pct	1	45	2		0	0	0	1	0	0	2	0	2	0	0	0	2	0	3	0	2	0	4	0	2	0	0	0	0	0	0	0	1	45	39	28	cloud	wind	6	12	19	35	0	0	0	28	254	18.2880000000000002558	1020	0	34
6.6.1	mac	0	2023-09-15	20:28:58	1	1	1	experiment	1	dispFeedback_noU	2	750	1000	210	220			34	dynamic	POS	1	98	0.6999999999999999556	68.5999999999999943157	98	96	0.4138396031721121582	35	40	5		25pct	1	45	2		0	0	0	1	0	0	2	0	2	0	0	0	2	0	3	0	2	0	4	0	2	0	0	0	0	0	0	0	1	45	39	28	cloud	wind	6	12	19	35	0	0	0	28	3367	242.4240000000000065938	1118	0	96
6.6.1	mac	0	2023-09-15	20:28:58	1	1	1	experiment	1	experiment_noU	2	750	414	300	320			75	dynamic	POS	1					96		35	40	5		25pct	1	45	2		0	0	0	1	0	0	2	0	2	0	0	0	2	0	3	0	2	0	4	0	2	0	0	0	0	0	0	0	1	45	40	29	cloud	wind	6	12	19	35	0	0	0	29	3367	242.4240000000000065938	1118	0	96
6.6.1	mac	0	2023-09-15	20:28:58	1	1	1	experiment	1	dispFeedback_noU	2	750	1000	300	320			75	dynamic	POS	1	42	0.6999999999999999556	29.3999999999999985789	42	45	0.3133121261636987454	35	40	5		25pct	1	45	2		0	0	0	1	0	0	2	0	2	0	0	0	2	0	3	0	2	0	4	0	2	0	0	0	0	0	0	0	1	45	40	29	cloud	wind	6	12	19	35	0	0	0	29	414	29.8079999999999998295	1160	0	45
6.6.1	mac	0	2023-09-15	20:28:58	1	1	1	experiment	1	experiment_noU	2	750	929	520	330			18	dynamic	POS	1					45		35	40	5		25pct	1	45	2		0	0	0	1	0	0	2	0	2	0	0	0	2	0	3	0	2	0	4	0	2	0	0	0	0	0	0	0	1	45	41	30	cloud	wind	6	12	19	35	0	0	0	30	414	29.8079999999999998295	1160	0	45
6.6.1	mac	0	2023-09-15	20:28:58	1	1	1	experiment	1	dispFeedback_noU	2	750	1000	520	330			18	dynamic	POS	1	122	0.6999999999999999556	85.3999999999999914735	1	10	0.7950827348500216774	35	40	5		25pct	1	45	2		0	0	0	1	0	0	2	0	2	0	0	0	2	0	3	0	2	0	4	0	2	0	0	0	0	0	0	0	1	45	41	30	cloud	wind	6	12	19	35	0	0	0	30	3079	221.6879999999999881766	1161	0	10
6.6.1	mac	0	2023-09-15	20:28:58	1	1	1	experiment	1	experiment_noU	2	750	1215	410	110			49	dynamic	POS	1					10		35	40	5		25pct	1	45	2		0	0	0	1	0	0	2	0	2	0	0	0	2	0	3	0	2	0	4	0	2	0	0	0	0	0	0	0	1	45	42	31	cloud	wind	6	12	19	35	0	0	0	31	3079	221.6879999999999881766	1161	0	10
6.6.1	mac	0	2023-09-15	20:28:58	1	1	1	experiment	1	dispFeedback_noU	2	750	1000	410	110			49	dynamic	POS	1	28	0.6999999999999999556	19.5999999999999978684	28	24	0.3694834868352588897	35	40	5		25pct	1	45	2		0	0	0	1	0	0	2	0	2	0	0	0	2	0	3	0	2	0	4	0	2	0	0	0	0	0	0	0	1	45	42	31	cloud	wind	6	12	19	35	0	0	0	31	4915	353.8799999999999954525	1189	0	24
6.6.1	mac	0	2023-09-15	20:28:58	1	1	1	experiment	1	experiment_noU	2	750	419	220	470			6	dynamic	POS	1					24		35	40	5		25pct	1	45	2		0	0	0	1	0	0	2	0	2	0	0	0	2	0	3	0	2	0	4	0	2	0	0	0	0	0	0	0	1	45	43	32	cloud	wind	6	12	19	35	0	0	0	32	4915	353.8799999999999954525	1189	0	24
6.6.1	mac	0	2023-09-15	20:28:58	1	1	1	experiment	1	dispFeedback_noU	2	750	1000	220	470			6	dynamic	POS	1	36	0.6999999999999999556	25.1999999999999992895	36	32	0.1951998738095163943	35	40	5		25pct	1	45	2		0	0	0	1	0	0	2	0	2	0	0	0	2	0	3	0	2	0	4	0	2	0	0	0	0	0	0	0	1	45	43	32	cloud	wind	6	12	19	35	0	0	0	32	1969	141.7680000000000006821	1225	0	32
6.6.1	mac	0	2023-09-15	20:28:58	1	1	1	experiment	1	experiment_noU	2	750	549	420	280			90	dynamic	POS	1					32		35	40	5		25pct	1	45	2		0	0	0	1	0	0	2	0	2	0	0	0	2	0	3	0	2	0	4	0	2	0	0	0	0	0	0	0	1	45	44	33	cloud	wind	6	12	19	35	0	0	0	33	1969	141.7680000000000006821	1225	0	32
6.6.1	mac	0	2023-09-15	20:28:58	1	1	1	experiment	1	dispFeedback_noU	2	750	1000	420	280			90	dynamic	POS	1	32	0.6999999999999999556	22.3999999999999985789	1	10	0.8292775200282404002	35	40	5		25pct	1	45	2		0	0	0	1	0	0	2	0	2	0	0	0	2	0	3	0	2	0	4	0	2	0	0	0	0	0	0	0	1	45	44	33	cloud	wind	6	12	19	35	0	0	0	33	1299	93.528000000000005798	1226	0	10
6.6.1	mac	0	2023-09-15	20:28:58	1	1	1	experiment	1	experiment_noU	2	750	3413	560	420			72	dynamic	POS	1					10		35	40	5		25pct	1	45	2		0	0	0	1	0	0	2	0	2	0	0	0	2	0	3	0	2	0	4	0	2	0	0	0	0	0	0	0	1	45	45	34	cloud	wind	6	12	19	35	0	0	0	34	1299	93.528000000000005798	1226	0	10
6.6.1	mac	0	2023-09-15	20:28:58	1	1	1	experiment	1	dispFeedback_noU	2	750	1000	560	420			72	dynamic	POS	1	80	0.6999999999999999556	56	80	76	0.0074331925733557881	35	40	5		25pct	1	45	2		0	0	0	1	0	0	2	0	2	0	0	0	2	0	3	0	2	0	4	0	2	0	0	0	0	0	0	0	1	45	45	34	cloud	wind	6	12	19	35	0	0	0	34	3263	234.9360000000000070486	1306	0	76
6.6.1	mac	0	2023-09-15	20:28:58	1	1	1	experiment	2	experiment_noU	2	750	919	400	500			47	dynamic	POS	1					76		40	10	5		25pct	15	10	30		0	0	0	1	0	0	0	0	0	0	0	0	0	0	0	0	0	0	0	0	0	0	0	0	0	0	0	0	2	45	1	36	cloud	wind	5	17	25	36	0	0	0	36	3263	234.9360000000000070486	1306	0	76
6.6.1	mac	0	2023-09-15	20:28:58	1	1	1	experiment	2	dispFeedback_noU	2	750	1000	400	500			47	dynamic	POS	1	38	0.6999999999999999556	26.5999999999999978684	38	35	0.5369349281622410874	40	10	5		25pct	15	10	30		0	0	0	1	0	0	0	0	0	0	0	0	0	0	0	0	0	0	0	0	0	0	0	0	0	0	0	0	2	45	1	36	cloud	wind	5	17	25	36	0	0	0	36	4519	325.3679999999999949978	1344	0	35
6.6.1	mac	0	2023-09-15	20:28:58	1	1	1	experiment	2	experiment_noU	2	750	485	260	120			74	dynamic	POS	1					35		40	10	5		25pct	15	10	30		0	0	0	1	0	0	0	0	0	0	0	0	0	0	0	0	0	0	0	0	0	0	0	0	0	0	0	0	2	45	2	37	cloud	wind	5	17	25	36	0	0	0	37	4519	325.3679999999999949978	1344	0	35
6.6.1	mac	0	2023-09-15	20:28:58	1	1	1	experiment	2	dispFeedback_noU	2	750	1000	260	120			74	dynamic	POS	1	48	0.6999999999999999556	33.5999999999999943157	1	10	0.9694846165295422091	40	10	5		25pct	15	10	30		0	0	0	1	0	0	0	0	0	0	0	0	0	0	0	0	0	0	0	0	0	0	0	0	0	0	0	0	2	45	2	37	cloud	wind	5	17	25	36	0	0	0	37	435	31.3200000000000002842	1345	0	10
6.6.1	mac	0	2023-09-15	20:28:58	1	1	1	experiment	2	experiment_noU	2	750	830	350	380			53	dynamic	POS	1					10		40	10	5		25pct	15	10	30		0	0	0	1	0	0	0	0	0	0	0	0	0	0	0	0	0	0	0	0	0	0	0	0	0	0	0	0	2	45	3	38	cloud	wind	5	17	25	36	0	0	0	38	435	31.3200000000000002842	1345	0	10
6.6.1	mac	0	2023-09-15	20:28:58	1	1	1	experiment	2	dispFeedback_noU	2	750	1000	350	380			53	dynamic	POS	1	59	0.6999999999999999556	41.2999999999999971578	59	59	0.0265178876059404302	40	10	5		25pct	15	10	30		0	0	0	1	0	0	0	0	0	0	0	0	0	0	0	0	0	0	0	0	0	0	0	0	0	0	0	0	2	45	3	38	cloud	wind	5	17	25	36	0	0	0	38	4730	340.5600000000000022737	1404	0	59
6.6.1	mac	0	2023-09-15	20:28:58	1	1	1	experiment	2	experiment_U	2	750	2519	460	230			49	dynamic	POS	1					59		40	10	5	90	30pct	15	10	30		0	0	0	1	0	0	0	0	0	0	0	0	0	0	0	1	0	0	0	0	0	0	0	0	0	0	0	0	2	45	5	39	cloud	wind	5	17	25	36	0	0	1	39	4730	340.5600000000000022737	1404	0	59
6.6.1	mac	0	2023-09-15	20:28:58	1	1	1	experiment	2	dispFeedback_U	2	750	1000	460	230			49	dynamic	POS	1	42	0.6999999999999999556	29.3999999999999985789	42	48	0.3123999916278757394	40	10	5	90	30pct	15	10	30		1	0	0	0	0	0	1	1	0	0	0	0	0	0	1	1	0	0	0	0	0	0	0	0	0	0	1	0	2	45	5	39	cloud	wind	5	17	25	36	0	0	1	39	1219	87.7680000000000006821	1446	0	48
6.6.1	mac	0	2023-09-15	20:28:58	1	1	1	experiment	2	experiment_U	2	750	3053	250	170			39	dynamic	POS	1					48		40	10	5	90	30pct	15	10	30		1	0	0	0	0	0	1	0	0	0	0	0	0	0	1	2	0	0	0	0	0	0	0	0	0	0	0	0	2	45	7	40	cloud	wind	5	17	25	36	0	0	1	40	1219	87.7680000000000006821	1446	0	48
6.6.1	mac	0	2023-09-15	20:28:58	1	1	1	experiment	2	dispFeedback_U	2	750	1000	250	170			39	dynamic	POS	1	39	0.6999999999999999556	27.2999999999999971578	39	45	0.1046062729099314359	40	10	5	90	30pct	15	10	30		1	0	0	0	0	0	2	1	0	0	0	0	0	0	2	2	0	0	0	0	0	0	0	0	0	0	1	0	2	45	7	40	cloud	wind	5	17	25	36	0	0	1	40	1253	90.2159999999999939746	1485	0	45
6.6.1	mac	0	2023-09-15	20:28:58	1	1	1	experiment	2	experiment_noU	2	750	1369	370	490			36	dynamic	POS	1					45		40	10	5		30pct	15	10	30		0	0	0	0	0	0	2	0	0	0	0	0	0	0	2	0	0	0	0	0	0	0	0	0	0	0	0	0	2	45	8	41	cloud	wind	5	12	25	36	0	0	0	41	1253	90.2159999999999939746	1485	0	45
6.6.1	mac	0	2023-09-15	20:28:58	1	1	1	experiment	2	dispFeedback_noU	2	750	1000	370	490			36	dynamic	POS	1	87	0.6999999999999999556	60.8999999999999985789	87	87	0.0631459504512944109	40	10	5		30pct	15	10	30		0	0	0	0	0	0	2	0	0	0	0	0	0	0	2	0	0	0	0	0	0	0	0	0	0	0	0	0	2	45	8	41	cloud	wind	5	12	25	36	0	0	0	41	4419	318.1680000000000063665	1572	0	87
6.6.1	mac	0	2023-09-15	20:28:58	1	1	1	experiment	2	experiment_noU	2	750	1605	340	240			28	dynamic	POS	1					87		40	10	5		30pct	15	10	30		0	0	0	0	0	0	2	0	0	0	0	0	0	0	2	0	0	0	0	0	0	0	0	0	0	0	0	0	2	45	9	42	cloud	wind	5	12	25	36	0	0	0	42	4419	318.1680000000000063665	1572	0	87
6.6.1	mac	0	2023-09-15	20:28:58	1	1	1	experiment	2	dispFeedback_noU	2	750	1000	340	240			28	dynamic	POS	1	94	0.6999999999999999556	65.7999999999999971578	1	10	0.7727827643446584238	40	10	5		30pct	15	10	30		0	0	0	0	0	0	2	0	0	0	0	0	0	0	2	0	0	0	0	0	0	0	0	0	0	0	0	0	2	45	9	42	cloud	wind	5	12	25	36	0	0	0	42	4255	306.3600000000000136424	1573	0	10
6.6.1	mac	0	2023-09-15	20:28:58	1	1	1	experiment	2	experiment_noU	2	750	475	520	370			86	dynamic	POS	1					10		40	10	5		30pct	15	10	30		0	0	0	0	0	0	2	0	0	0	0	0	0	0	2	0	0	0	0	0	0	0	0	0	0	0	0	0	2	45	10	43	cloud	wind	5	12	25	36	0	0	0	43	4255	306.3600000000000136424	1573	0	10
6.6.1	mac	0	2023-09-15	20:28:58	1	1	1	experiment	2	dispFeedback_noU	2	750	1000	520	370			86	dynamic	POS	1	29	0.6999999999999999556	20.2999999999999971578	29	33	0.3092601430391101469	40	10	5		30pct	15	10	30		0	0	0	0	0	0	2	0	0	0	0	0	0	0	2	0	0	0	0	0	0	0	0	0	0	0	0	0	2	45	10	43	cloud	wind	5	12	25	36	0	0	0	43	1025	73.7999999999999971578	1602	0	33
6.6.1	mac	0	2023-09-15	20:28:58	1	1	1	experiment	2	experiment_U	2	750	3640	310	140			69	dynamic	POS	1					33		40	10	5		25pct	15	10	30	240	0	0	0	0	0	0	2	0	0	0	0	0	0	0	2	0	0	1	0	0	0	0	0	0	0	0	0	0	2	45	12	44	cloud	wind	5	12	25	36	0	0	2	44	1025	73.7999999999999971578	1602	0	33
6.6.1	mac	0	2023-09-15	20:28:58	1	1	1	experiment	2	dispFeedback_U	2	750	1000	310	140			69	dynamic	POS	1	29	0.6999999999999999556	20.2999999999999971578	1	10	0.9671101474592253	40	10	5		25pct	15	10	30	240	0	1	0	0	0	0	2	0	1	1	0	0	0	0	2	0	1	1	0	0	0	0	0	0	0	0	0	1	2	45	12	44	cloud	wind	5	12	25	36	0	0	2	44	3340	240.4799999999999897682	1603	0	10
6.6.1	mac	0	2023-09-15	20:28:58	1	1	1	experiment	2	experiment_U	2	750	5013	490	200			42	dynamic	POS	1					10		40	10	5		25pct	15	10	30	240	0	1	0	0	0	0	2	0	1	0	0	0	0	0	2	0	1	2	0	0	0	0	0	0	0	0	0	0	2	45	14	45	cloud	wind	5	12	25	36	0	0	2	45	3340	240.4799999999999897682	1603	0	10
6.6.1	mac	0	2023-09-15	20:28:58	1	1	1	experiment	2	dispFeedback_U	2	750	1000	490	200			42	dynamic	POS	1	27	0.6999999999999999556	18.8999999999999985789	27	28	0.1678946726415061208	40	10	5		25pct	15	10	30	240	0	1	0	0	0	0	2	0	2	1	0	0	0	0	2	0	2	2	0	0	0	0	0	0	0	0	0	1	2	45	14	45	cloud	wind	5	12	25	36	0	0	2	45	3363	242.1359999999999956799	1630	0	28
6.6.1	mac	0	2023-09-15	20:28:58	1	1	1	experiment	2	experiment_noU	2	750	805	500	320			21	dynamic	POS	1					28		40	10	5		25pct	15	10	30		0	0	0	0	0	0	2	0	2	0	0	0	0	0	2	0	2	0	0	0	0	0	0	0	0	0	0	0	2	45	15	46	cloud	wind	5	12	19	36	0	0	0	46	3363	242.1359999999999956799	1630	0	28
6.6.1	mac	0	2023-09-15	20:28:58	1	1	1	experiment	2	dispFeedback_noU	2	750	1000	500	320			21	dynamic	POS	1	20	0.6999999999999999556	14	20	20	0.0424122293578489268	40	10	5		25pct	15	10	30		0	0	0	0	0	0	2	0	2	0	0	0	0	0	2	0	2	0	0	0	0	0	0	0	0	0	0	0	2	45	15	46	cloud	wind	5	12	19	36	0	0	0	46	3105	223.5600000000000022737	1650	0	20
6.6.1	mac	0	2023-09-15	20:28:58	1	1	1	experiment	2	experiment_noU	2	750	1163	210	430			79	dynamic	POS	1					20		40	10	5		25pct	15	10	30		0	0	0	0	0	0	2	0	2	0	0	0	0	0	2	0	2	0	0	0	0	0	0	0	0	0	0	0	2	45	16	47	cloud	wind	5	12	19	36	0	0	0	47	3105	223.5600000000000022737	1650	0	20
6.6.1	mac	0	2023-09-15	20:28:58	1	1	1	experiment	2	dispFeedback_noU	2	750	1000	210	430			79	dynamic	POS	1	20	0.6999999999999999556	14	1	10	0.9715224099279200498	40	10	5		25pct	15	10	30		0	0	0	0	0	0	2	0	2	0	0	0	0	0	2	0	2	0	0	0	0	0	0	0	0	0	0	0	2	45	16	47	cloud	wind	5	12	19	36	0	0	0	47	1363	98.1359999999999956799	1651	0	10
6.6.1	mac	0	2023-09-15	20:28:58	1	1	1	experiment	2	experiment_noU	2	750	1910	340	190			94	dynamic	POS	1					10		40	10	5		25pct	15	10	30		0	0	0	0	0	0	2	0	2	0	0	0	0	0	2	0	2	0	0	0	0	0	0	0	0	0	0	0	2	45	17	48	cloud	wind	5	12	19	36	0	0	0	48	1363	98.1359999999999956799	1651	0	10
6.6.1	mac	0	2023-09-15	20:28:58	1	1	1	experiment	2	dispFeedback_noU	2	750	1000	340	190			94	dynamic	POS	1	24	0.6999999999999999556	16.7999999999999971578	24	24	0.6766260351698440978	40	10	5		25pct	15	10	30		0	0	0	0	0	0	2	0	2	0	0	0	0	0	2	0	2	0	0	0	0	0	0	0	0	0	0	0	2	45	17	48	cloud	wind	5	12	19	36	0	0	0	48	2860	205.9199999999999874944	1675	0	24
6.6.1	mac	0	2023-09-15	20:28:58	1	1	1	experiment	2	experiment_U	2	750	4738	230	170			56	dynamic	POS	1					24		40	10	5	270	30pct	15	10	30		0	0	0	0	0	0	2	0	2	0	0	0	0	0	2	0	2	0	0	1	0	0	0	0	0	0	0	0	2	45	19	49	cloud	wind	5	12	19	36	0	0	3	49	2860	205.9199999999999874944	1675	0	24
6.6.1	mac	0	2023-09-15	20:28:58	1	1	1	experiment	2	dispFeedback_U	2	750	1000	230	170			56	dynamic	POS	1	34	0.6999999999999999556	23.7999999999999971578	1	10	0.9475767568097395177	40	10	5	270	30pct	15	10	30		0	0	1	0	0	0	2	0	2	0	1	1	0	0	2	0	2	0	1	1	0	0	0	0	0	0	1	0	2	45	19	49	cloud	wind	5	12	19	36	0	0	3	49	3788	272.7359999999999899956	1676	0	10
6.6.1	mac	0	2023-09-15	20:28:58	1	1	1	experiment	2	experiment_U	2	750	492	430	220			68	dynamic	POS	1					10		40	10	5	270	30pct	15	10	30		0	0	1	0	0	0	2	0	2	0	1	0	0	0	2	0	2	0	1	2	0	0	0	0	0	0	0	0	2	45	21	50	cloud	wind	5	12	19	36	0	0	3	50	3788	272.7359999999999899956	1676	0	10
6.6.1	mac	0	2023-09-15	20:28:58	1	1	1	experiment	2	dispFeedback_U	2	750	1000	430	220			68	dynamic	POS	1	99	0.6999999999999999556	69.2999999999999971578	99	101	0.6947907623124287557	40	10	5	270	30pct	15	10	30		0	0	0	0	0	0	2	0	2	0	1	0	0	0	2	0	2	0	2	2	0	0	0	0	0	0	0	0	2	45	21	50	cloud	wind	5	12	19	36	0	0	3	50	142	10.224000000000000199	1775	0	101
6.6.1	mac	0	2023-09-15	20:28:58	1	1	1	experiment	2	experiment_U	2	750	843	280	130			7	dynamic	POS	1					101		40	10	5	270	30pct	15	10	30		0	0	0	0	0	0	2	0	2	0	1	0	0	0	2	0	2	0	2	3	0	0	0	0	0	0	0	0	2	45	23	51	cloud	wind	5	12	19	36	0	0	3	51	142	10.224000000000000199	1775	0	101
6.6.1	mac	0	2023-09-15	20:28:58	1	1	1	experiment	2	dispFeedback_U	2	750	1000	280	130			7	dynamic	POS	1	42	0.6999999999999999556	29.3999999999999985789	42	42	0.6631192473375981944	40	10	5	270	30pct	15	10	30		0	0	0	0	0	0	2	0	2	0	1	0	0	0	2	0	2	0	3	3	0	0	0	0	0	0	0	0	2	45	23	51	cloud	wind	5	12	19	36	0	0	3	51	2443	175.895999999999986585	1817	0	42
6.6.1	mac	0	2023-09-15	20:28:58	1	1	1	experiment	2	experiment_U	2	750	448	290	420			63	dynamic	POS	1					42		40	10	5	270	30pct	15	10	30		0	0	0	0	0	0	2	0	2	0	1	0	0	0	2	0	2	0	3	4	0	0	0	0	0	0	0	0	2	45	25	52	cloud	wind	5	12	19	36	0	0	3	52	2443	175.895999999999986585	1817	0	42
6.6.1	mac	0	2023-09-15	20:28:58	1	1	1	experiment	2	dispFeedback_U	2	750	1000	290	420			63	dynamic	POS	1	154	0.6999999999999999556	107.7999999999999971578	154	139	0.0803916098271477003	40	10	5	270	30pct	15	10	30		0	0	0	0	0	0	2	0	2	0	1	0	0	0	2	0	2	0	4	4	0	0	0	0	0	0	0	0	2	45	25	52	cloud	wind	5	12	19	36	0	0	3	52	4848	349.0559999999999831743	1971	0	139
6.6.1	mac	0	2023-09-15	20:28:58	1	1	1	experiment	2	experiment_noU	2	750	1441	540	330			41	dynamic	POS	1					139		40	10	5		30pct	15	10	30		0	0	0	0	0	0	2	0	2	0	1	0	0	0	2	0	2	0	4	0	0	0	0	0	0	0	0	0	2	45	26	53	cloud	wind	5	12	19	36	0	0	0	53	4848	349.0559999999999831743	1971	0	139
6.6.1	mac	0	2023-09-15	20:28:58	1	1	1	experiment	2	dispFeedback_noU	2	750	1000	540	330			41	dynamic	POS	1	152	0.6999999999999999556	106.3999999999999914735	152	137	0.0369067464575420015	40	10	5		30pct	15	10	30		0	0	0	0	0	0	2	0	2	0	1	0	0	0	2	0	2	0	4	0	0	0	0	0	0	0	0	0	2	45	26	53	cloud	wind	5	12	19	36	0	0	0	53	4741	341.3519999999999754436	2123	0	137
6.6.1	mac	0	2023-09-15	20:28:58	1	1	1	experiment	2	experiment_noU	2	750	1761	440	150			38	dynamic	POS	1					137		40	10	5		30pct	15	10	30		0	0	0	0	0	0	2	0	2	0	1	0	0	0	2	0	2	0	4	0	0	0	0	0	0	0	0	0	2	45	27	54	cloud	wind	5	12	19	36	0	0	0	54	4741	341.3519999999999754436	2123	0	137
6.6.1	mac	0	2023-09-15	20:28:58	1	1	1	experiment	2	dispFeedback_noU	2	750	1000	440	150			38	dynamic	POS	1	158	0.6999999999999999556	110.5999999999999943157	1	10	0.7385278557749762607	40	10	5		30pct	15	10	30		0	0	0	0	0	0	2	0	2	0	1	0	0	0	2	0	2	0	4	0	0	0	0	0	0	0	0	0	2	45	27	54	cloud	wind	5	12	19	36	0	0	0	54	4911	353.5919999999999845386	2124	0	10
6.6.1	mac	0	2023-09-15	20:28:58	1	1	1	experiment	2	experiment_noU	2	750	696	240	400			22	dynamic	POS	1					10		40	10	5		30pct	15	10	30		0	0	0	0	0	0	2	0	2	0	1	0	0	0	2	0	2	0	4	0	0	0	0	0	0	0	0	0	2	45	28	55	cloud	wind	5	12	19	36	0	0	0	55	4911	353.5919999999999845386	2124	0	10
6.6.1	mac	0	2023-09-15	20:28:58	1	1	1	experiment	2	dispFeedback_noU	2	750	1000	240	400			22	dynamic	POS	1	14	0.6999999999999999556	9.7999999999999989342	14	16	0.0032095608774594872	40	10	5		30pct	15	10	30		0	0	0	0	0	0	2	0	2	0	1	0	0	0	2	0	2	0	4	0	0	0	0	0	0	0	0	0	2	45	28	55	cloud	wind	5	12	19	36	0	0	0	55	3046	219.3120000000000118234	2138	0	16
6.6.1	mac	0	2023-09-15	20:28:58	1	1	1	experiment	2	experiment_noU	2	750	1217	200	410			45	dynamic	POS	1					16		40	10	5		30pct	15	10	30		0	0	0	0	0	0	2	0	2	0	1	0	0	0	2	0	2	0	4	0	0	0	0	0	0	0	0	0	2	45	29	56	cloud	wind	5	12	19	36	0	0	0	56	3046	219.3120000000000118234	2138	0	16
6.6.1	mac	0	2023-09-15	20:28:58	1	1	1	experiment	2	dispFeedback_noU	2	750	1000	200	410			45	dynamic	POS	1	163	0.6999999999999999556	114.0999999999999943157	1	10	0.8213914541577435058	40	10	5		30pct	15	10	30		0	0	0	0	0	0	2	0	2	0	1	0	0	0	2	0	2	0	4	0	0	0	0	0	0	0	0	0	2	45	29	56	cloud	wind	5	12	19	36	0	0	0	56	4717	339.6240000000000236469	2139	0	10
6.6.1	mac	0	2023-09-15	20:28:58	1	1	1	experiment	2	experiment_noU	2	750	2754	220	250			20	dynamic	POS	1					10		40	10	5		30pct	15	10	30		0	0	0	0	0	0	2	0	2	0	1	0	0	0	2	0	2	0	4	0	0	0	0	0	0	0	0	0	2	45	30	57	cloud	wind	5	12	19	36	0	0	0	57	4717	339.6240000000000236469	2139	0	10
6.6.1	mac	0	2023-09-15	20:28:58	1	1	1	experiment	2	dispFeedback_noU	2	750	1000	220	250			20	dynamic	POS	1	139	0.6999999999999999556	97.2999999999999971578	139	140	0.5178827220848488677	40	10	5		30pct	15	10	30		0	0	0	0	0	0	2	0	2	0	1	0	0	0	2	0	2	0	4	0	0	0	0	0	0	0	0	0	2	45	30	57	cloud	wind	5	12	19	36	0	0	0	57	4	0.2879999999999999782	2278	0	140
6.6.1	mac	0	2023-09-15	20:28:58	1	1	1	experiment	2	experiment_noU	2	750	3416	250	260			6	dynamic	POS	1					140		40	10	5		30pct	15	10	30		0	0	0	0	0	0	2	0	2	0	1	0	0	0	2	0	2	0	4	0	0	0	0	0	0	0	0	0	2	45	31	58	cloud	wind	5	12	19	36	0	0	0	58	4	0.2879999999999999782	2278	0	140
6.6.1	mac	0	2023-09-15	20:28:58	1	1	1	experiment	2	dispFeedback_noU	2	750	1000	250	260			6	dynamic	POS	1	147	0.6999999999999999556	102.8999999999999914735	1	10	0.7296238436199780075	40	10	5		30pct	15	10	30		0	0	0	0	0	0	2	0	2	0	1	0	0	0	2	0	2	0	4	0	0	0	0	0	0	0	0	0	2	45	31	58	cloud	wind	5	12	19	36	0	0	0	58	4966	357.5520000000000209184	2279	0	10
6.6.1	mac	0	2023-09-15	20:28:58	1	1	1	experiment	2	experiment_noU	2	750	3534	320	450			3	dynamic	POS	1					10		40	10	5		30pct	15	10	30		0	0	0	0	0	0	2	0	2	0	1	0	0	0	2	0	2	0	4	0	0	0	0	0	0	0	0	0	2	45	32	59	cloud	wind	5	12	19	36	0	0	0	59	4966	357.5520000000000209184	2279	0	10
6.6.1	mac	0	2023-09-15	20:28:58	1	1	1	experiment	2	dispFeedback_noU	2	750	1000	320	450			3	dynamic	POS	1	163	0.6999999999999999556	114.0999999999999943157	163	177	0.0766803149778117199	40	10	5		30pct	15	10	30		0	0	0	0	0	0	2	0	2	0	1	0	0	0	2	0	2	0	4	0	0	0	0	0	0	0	0	0	2	45	32	59	cloud	wind	5	12	19	36	0	0	0	59	4934	355.2479999999999904503	2442	0	177
6.6.1	mac	0	2023-09-15	20:28:58	1	1	1	experiment	2	experiment_noU	2	750	1334	600	440			45	dynamic	POS	1					177		40	10	5		30pct	15	10	30		0	0	0	0	0	0	2	0	2	0	1	0	0	0	2	0	2	0	4	0	0	0	0	0	0	0	0	0	2	45	33	60	cloud	wind	5	12	19	36	0	0	0	60	4934	355.2479999999999904503	2442	0	177
6.6.1	mac	0	2023-09-15	20:28:58	1	1	1	experiment	2	dispFeedback_noU	2	750	1000	600	440			45	dynamic	POS	1	161	0.6999999999999999556	112.6999999999999886313	161	156	0.1342623413387365461	40	10	5		30pct	15	10	30		0	0	0	0	0	0	2	0	2	0	1	0	0	0	2	0	2	0	4	0	0	0	0	0	0	0	0	0	2	45	33	60	cloud	wind	5	12	19	36	0	0	0	60	4834	348.048000000000001819	2603	0	156
6.6.1	mac	0	2023-09-15	20:28:58	1	1	1	experiment	2	experiment_noU	2	750	2296	570	480			26	dynamic	POS	1					156		40	10	5		30pct	15	10	30		0	0	0	0	0	0	2	0	2	0	1	0	0	0	2	0	2	0	4	0	0	0	0	0	0	0	0	0	2	45	34	61	cloud	wind	5	12	19	36	0	0	0	61	4834	348.048000000000001819	2603	0	156
6.6.1	mac	0	2023-09-15	20:28:58	1	1	1	experiment	2	dispFeedback_noU	2	750	1000	570	480			26	dynamic	POS	1	162	0.6999999999999999556	113.3999999999999914735	1	10	0.7952936184115926288	40	10	5		30pct	15	10	30		0	0	0	0	0	0	2	0	2	0	1	0	0	0	2	0	2	0	4	0	0	0	0	0	0	0	0	0	2	45	34	61	cloud	wind	5	12	19	36	0	0	0	61	4846	348.9119999999999777174	2604	0	10
6.6.1	mac	0	2023-09-15	20:28:58	1	1	1	experiment	2	experiment_U	2	750	3718	530	350			93	dynamic	POS	1					10		40	10	5		30pct	15	10	30	270	0	0	0	0	0	0	2	0	2	0	1	0	0	0	2	0	2	0	4	0	0	1	0	0	0	0	0	0	2	45	36	62	cloud	wind	5	12	19	36	0	0	4	62	4846	348.9119999999999777174	2604	0	10
6.6.1	mac	0	2023-09-15	20:28:58	1	1	1	experiment	2	dispFeedback_U	2	750	1000	530	350			93	dynamic	POS	1	139	0.6999999999999999556	97.2999999999999971578	139	140	0.0526645968325120881	40	10	5		30pct	15	10	30	270	0	0	0	0	0	0	2	0	2	0	1	0	0	0	2	0	2	0	4	0	1	1	0	0	0	0	0	0	2	45	36	62	cloud	wind	5	12	19	36	0	0	4	62	4618	332.4959999999999809006	2743	0	140
6.6.1	mac	0	2023-09-15	20:28:58	1	1	1	experiment	2	experiment_U	2	750	3763	400	340			95	dynamic	POS	1					140		40	10	5		30pct	15	10	30	270	0	0	0	0	0	0	2	0	2	0	1	0	0	0	2	0	2	0	4	0	1	2	0	0	0	0	0	0	2	45	38	63	cloud	wind	5	12	19	36	0	0	4	63	4618	332.4959999999999809006	2743	0	140
6.6.1	mac	0	2023-09-15	20:28:58	1	1	1	experiment	2	dispFeedback_U	2	750	1000	400	340			95	dynamic	POS	1	159	0.6999999999999999556	111.2999999999999971578	159	152	0.5626634160435440846	40	10	5		30pct	15	10	30	270	0	0	0	0	0	0	2	0	2	0	1	0	0	0	2	0	2	0	4	0	2	2	0	0	0	0	0	0	2	45	38	63	cloud	wind	5	12	19	36	0	0	4	63	4763	342.9359999999999786269	2902	0	152
6.6.1	mac	0	2023-09-15	20:28:58	1	1	1	experiment	2	experiment_U	2	750	482	410	290			66	dynamic	POS	1					152		40	10	5		30pct	15	10	30	270	0	0	0	0	0	0	2	0	2	0	1	0	0	0	2	0	2	0	4	0	2	3	0	0	0	0	0	0	2	45	40	64	cloud	wind	5	12	19	36	0	0	4	64	4763	342.9359999999999786269	2902	0	152
6.6.1	mac	0	2023-09-15	20:28:58	1	1	1	experiment	2	dispFeedback_U	2	750	1000	410	290			66	dynamic	POS	1	129	0.6999999999999999556	90.2999999999999971578	129	134	0.0086576272753667149	40	10	5		30pct	15	10	30	270	0	0	0	0	0	0	2	0	2	0	1	0	0	0	2	0	2	0	4	0	3	3	0	0	0	0	0	0	2	45	40	64	cloud	wind	5	12	19	36	0	0	4	64	32	2.3039999999999998259	3031	0	134
6.6.1	mac	0	2023-09-15	20:28:58	1	1	1	experiment	2	experiment_U	2	750	4123	420	100			88	dynamic	POS	1					134		40	10	5		30pct	15	10	30	270	0	0	0	0	0	0	2	0	2	0	1	0	0	0	2	0	2	0	4	0	3	4	0	0	0	0	0	0	2	45	42	65	cloud	wind	5	12	19	36	0	0	4	65	32	2.3039999999999998259	3031	0	134
6.6.1	mac	0	2023-09-15	20:28:58	1	1	1	experiment	2	dispFeedback_U	2	750	1000	420	100			88	dynamic	POS	1	159	0.6999999999999999556	111.2999999999999971578	159	153	0.0813419295198614528	40	10	5		30pct	15	10	30	270	0	0	0	0	0	0	2	0	2	0	1	0	0	0	2	0	2	0	4	0	4	4	0	0	0	0	0	0	2	45	42	65	cloud	wind	5	12	19	36	0	0	4	65	4773	343.6560000000000059117	3190	0	153
6.6.1	mac	0	2023-09-15	20:28:58	1	1	1	experiment	2	experiment_noU	2	750	4929	300	310			71	dynamic	POS	1					153		40	10	5		30pct	15	10	30		0	0	0	0	0	0	2	0	2	0	1	0	0	0	2	0	2	0	4	0	4	0	0	0	0	0	0	0	2	45	43	66	cloud	wind	5	12	19	36	0	0	0	66	4773	343.6560000000000059117	3190	0	153
6.6.1	mac	0	2023-09-15	20:28:58	1	1	1	experiment	2	dispFeedback_noU	2	750	1000	300	310			71	dynamic	POS	1	157	0.6999999999999999556	109.8999999999999914735	157	159	0.5976872967085072874	40	10	5		30pct	15	10	30		0	0	0	0	0	0	2	0	2	0	1	0	0	0	2	0	2	0	4	0	4	0	0	0	0	0	0	0	2	45	43	66	cloud	wind	5	12	19	36	0	0	0	66	4729	340.4879999999999995453	3347	0	159
6.6.1	mac	0	2023-09-15	20:28:58	1	1	1	experiment	2	experiment_noU	2	750	1702	260	180			34	dynamic	POS	1					159		40	10	5		30pct	15	10	30		0	0	0	0	0	0	2	0	2	0	1	0	0	0	2	0	2	0	4	0	4	0	0	0	0	0	0	0	2	45	44	67	cloud	wind	5	12	19	36	0	0	0	67	4729	340.4879999999999995453	3347	0	159
6.6.1	mac	0	2023-09-15	20:28:58	1	1	1	experiment	2	dispFeedback_noU	2	750	1000	260	180			34	dynamic	POS	1	163	0.6999999999999999556	114.0999999999999943157	163	184	0.6784282742716437609	40	10	5		30pct	15	10	30		0	0	0	0	0	0	2	0	2	0	1	0	0	0	2	0	2	0	4	0	4	0	0	0	0	0	0	0	2	45	44	67	cloud	wind	5	12	19	36	0	0	0	67	4652	334.9440000000000168257	3510	0	184
6.6.1	mac	0	2023-09-15	20:28:58	1	1	1	experiment	2	experiment_noU	2	750	1734	480	210			68	dynamic	POS	1					184		40	10	5		30pct	15	10	30		0	0	0	0	0	0	2	0	2	0	1	0	0	0	2	0	2	0	4	0	4	0	0	0	0	0	0	0	2	45	45	68	cloud	wind	5	12	19	36	0	0	0	68	4652	334.9440000000000168257	3510	0	184
