build	computer.platform	computer.touch	date	time	subject	group	sessionid	blockcode	blocknum	trialcode	latency	randStart	startPos	scrfunc	rtvspos	randStart	circleproportion	mag	freq	ev	inc	rng	startPos	n_revolutions	totalPoints	totalEarnings	Earnings
6.6.1	mac	0	2023-01-18	13:07:53	1	1	1	instructions	1	instructions1	24754	1	75	IEV	POS	1	0.3300000000000000155						75	0	0	0	
6.6.1	mac	0	2023-01-18	13:07:53	1	1	1	instructions	1	displayGoodJob	3286	1	75	IEV	POS	1	0.3300000000000000155						75	0	0	0	
6.6.1	mac	0	2023-01-18	13:07:53	1	1	1	instructions	1	instructions3	4467	1	75	IEV	POS	1	0.3300000000000000155						75	0	0	0	
6.6.1	mac	0	2023-01-18	13:07:53	1	1	1	instructions	1	countdown	1000	1	75	IEV	POS	1	0.3300000000000000155						75	0	0	0	
6.6.1	mac	0	2023-01-18	13:07:53	1	1	1	experiment	2	experiment_noU	6162	1	44	IEV	POS	1	0.3300000000000000155						44	47077	0	0	
6.6.1	mac	0	2023-01-18	13:07:53	1	1	1	experiment	2	dispFeedback_noU	1000	1	44	IEV	POS	1	0.3300000000000000155	236	0.9543104870697398656	225.5620048814219558153	236	0.6409626208806789016	44	47077	236	0	
6.6.1	mac	0	2023-01-18	13:07:53	1	1	1	experiment	2	experiment_noU	2090	1	20	IEV	POS	1	0.3300000000000000155						20	51188	236	0	
6.6.1	mac	0	2023-01-18	13:07:53	1	1	1	experiment	2	dispFeedback_noU	1000	1	20	IEV	POS	1	0.3300000000000000155	199	0.9906539480355741611	196.9171502884549624923	199	0.7882792397374936977	20	51188	435	0	
6.6.1	mac	0	2023-01-18	13:07:53	1	1	1	experiment	2	experiment_noU	388	1	58	IEV	POS	1	0.3300000000000000155						58	53603	435	0	
6.6.1	mac	0	2023-01-18	13:07:53	1	1	1	experiment	2	dispFeedback_noU	1000	1	58	IEV	POS	1	0.3300000000000000155	228	0.9644002990008917475	220.3397242504182429457	228	0.9065264155870598195	58	53603	663	0	
6.6.1	mac	0	2023-01-18	13:07:53	1	1	1	experiment	2	experiment_noU	627	1	47	IEV	POS	1	0.3300000000000000155						47	56258	663	0	
6.6.1	mac	0	2023-01-18	13:07:53	1	1	1	experiment	2	dispFeedback_noU	1000	1	47	IEV	POS	1	0.3300000000000000155	181	1.0050342463003383298	182.2816526785669850597	181	0.3544085354903732665	47	56258	844	0	
6.6.1	mac	0	2023-01-18	13:07:53	1	1	1	experiment	3	experiment_noU	1624	1	97	CEV	POS	1	0.3300000000000000155						97	59922	844	0	
6.6.1	mac	0	2023-01-18	13:07:53	1	1	1	experiment	3	dispFeedback_noU	1000	1	97	CEV	POS	1	0.3300000000000000155	69	0.5108571428571428985	35.4674285714285772997	69	0.4385859939359561532	97	59922	913	7	7
6.6.1	mac	0	2023-01-18	13:07:53	1	1	1	experiment	3	experiment_noU	1893	1	1	CEV	POS	1	0.3300000000000000155						1	63857	913	7	7
6.6.1	mac	0	2023-01-18	13:07:53	1	1	1	experiment	3	dispFeedback_noU	1000	1	1	CEV	POS	1	0.3300000000000000155	86	0.443857142857142839	38.3315714285714221887	0	0.760253135059087759	1	63857	913	7	0
6.6.1	mac	0	2023-01-18	13:07:53	1	1	1	experiment	3	experiment_noU	1192	1	28	CEV	POS	1	0.3300000000000000155						28	67072	913	7	0
6.6.1	mac	0	2023-01-18	13:07:53	1	1	1	experiment	3	dispFeedback_noU	1000	1	28	CEV	POS	1	0.3300000000000000155	108	0.3511428571428570899	38.0534285714285616109	0	0.947772626752912184	28	67072	913	7	0
6.6.1	mac	0	2023-01-18	13:07:53	1	1	1	experiment	3	experiment_noU	3366	1	78	CEV	POS	1	0.3300000000000000155						78	72480	913	7	0
6.6.1	mac	0	2023-01-18	13:07:53	1	1	1	experiment	3	dispFeedback_noU	1000	1	78	CEV	POS	1	0.3300000000000000155	92	0.3977142857142856869	36.6022857142857134249	0	0.7479734895164085184	78	72480	913	7	0
6.6.1	mac	0	2023-01-18	13:07:53	1	1	1	endscreen	4	endscreen	5000	1	78	CEV	POS	1	0.3300000000000000155						78	72480	913	7	
