build	computer.platform	computer.touch	date	time	subject	group	sessionid	blockcode	blocknum	trialcode	latency	randStart	startPos	scrfunc	rtvspos	randStart	mag	freq	ev	inc	rng	startPos	fogPos1	fogPos2	chooseUncertainty1	chooseUncertainty2	uncertaintyCount1	uncertaintyCount2	blockCount	ntrials	trialCount	uncertaintyStart1	uncertaintyStart2	rt_shifted	totalPoints	totalEarnings	Earnings
6.6.1	mac	0	2023-01-31	15:24:09	1	1	1	instructions	1	instructions1	620	1	75	IEV	POS	1						75	0	0	0	0	0	0	0	10	0	0	0		0	0	
6.6.1	mac	0	2023-01-31	15:24:09	1	1	1	instructions	1	displayGoodJob	640	1	75	IEV	POS	1						75	0	0	0	0	0	0	0	10	0	0	0		0	0	
6.6.1	mac	0	2023-01-31	15:24:09	1	1	1	instructions	1	feedback2_5	3000	1	75	IEV	POS	1						75	0	0	0	0	0	0	0	10	0	0	0		0	0	0
6.6.1	mac	0	2023-01-31	15:24:09	1	1	1	instructions	1	instructions3	4546	1	75	IEV	POS	1						75	0	0	0	0	0	0	0	10	0	0	0		0	0	0
6.6.1	mac	0	2023-01-31	15:24:09	1	1	1	instructions	1	instructions4	3015	1	75	IEV	POS	1						75	0	0	0	0	0	0	0	10	0	0	0		0	0	0
6.6.1	mac	0	2023-01-31	15:24:09	1	1	1	instructions	1	sampleResponse	3000	1	75	IEV	POS	1						75	0	0	0	0	0	0	0	10	0	0	0	3015	0	0	0
6.6.1	mac	0	2023-01-31	15:24:09	1	1	1	instructions	1	instructions5	1772	1	75	IEV	POS	1						75	0	0	0	0	0	0	0	10	0	0	0	3015	0	0	0
6.6.1	mac	0	2023-01-31	15:24:09	1	1	1	instructions	1	countdown	1000	1	75	IEV	POS	1						75	0	0	0	0	0	0	0	10	0	0	0	3015	0	0	0
6.6.1	mac	0	2023-01-31	15:24:09	1	1	1	experiment	2	experiment_noU	554	1	29	IEV	POS	1						29	1	10	0	0	0	0	1	37	0	11	30	3015	0	0	0
6.6.1	mac	0	2023-01-31	15:24:09	1	1	1	experiment	2	dispFeedback_noU	1000	1	29	IEV	POS	1	85	0.5319472075330367034	45.3401286445063291808	85	0.4774476204713451466	29	1	10	0	0	0	0	1	37	1	11	30	3254	85	6	6
6.6.1	mac	0	2023-01-31	15:24:09	1	1	1	experiment	2	experiment_noU	532	1	97	IEV	POS	1						97	1	10	0	0	0	0	1	37	1	11	30	3254	85	6	6
6.6.1	mac	0	2023-01-31	15:24:09	1	1	1	experiment	2	dispFeedback_noU	1000	1	97	IEV	POS	1	38	0.8093861836010043387	31.0994332698570232765	38	0.1511082016283432361	97	1	10	0	0	0	0	1	37	2	11	30	1632	123	9	3
6.6.1	mac	0	2023-01-31	15:24:09	1	1	1	experiment	2	experiment_noU	565	1	72	IEV	POS	1						72	1	10	0	0	0	0	1	37	2	11	30	1632	123	9	3
6.6.1	mac	0	2023-01-31	15:24:09	1	1	1	experiment	2	dispFeedback_noU	1000	1	72	IEV	POS	1	19	0.894899874272848006	16.8727053168471101685	19	0.0498099043149989804	72	1	10	0	0	0	0	1	37	3	11	30	415	142	10	1
6.6.1	mac	0	2023-01-31	15:24:09	1	1	1	experiment	2	experiment_noU	1473	1	37	IEV	POS	1						37	1	10	0	0	0	0	1	37	3	11	30	415	142	10	1
6.6.1	mac	0	2023-01-31	15:24:09	1	1	1	experiment	2	dispFeedback_noU	1000	1	37	IEV	POS	1	219	0.263064346114577019	57.6738454634865576054	219	0.2110770802737858831	37	1	10	0	0	0	0	1	37	4	11	30	4573	361	20	10
6.6.1	mac	0	2023-01-31	15:24:09	1	1	1	experiment	2	experiment_noU	2867	1	8	IEV	POS	1						8	1	10	0	0	0	0	1	37	4	11	30	4573	361	20	10
6.6.1	mac	0	2023-01-31	15:24:09	1	1	1	experiment	2	dispFeedback_noU	1000	1	8	IEV	POS	1	205	0.2737440492256431601	56.0969485876661195789	205	0.1240710595445872894	8	1	10	0	0	0	0	1	37	5	11	30	4517	566	30	10
6.6.1	mac	0	2023-01-31	15:24:09	1	1	1	experiment	2	experiment_noU	2670	1	8	IEV	POS	1						8	1	10	0	0	0	0	1	37	5	11	30	4517	566	30	10
6.6.1	mac	0	2023-01-31	15:24:09	1	1	1	experiment	2	dispFeedback_noU	1000	1	8	IEV	POS	1	178	0.312159416084525021	55.6905850771439716596	178	0.0948053804679786227	8	1	10	0	0	0	0	1	37	6	11	30	4320	744	40	10
6.6.1	mac	0	2023-01-31	15:24:09	1	1	1	experiment	2	experiment_noU	1081	1	37	IEV	POS	1						37	1	10	0	0	0	0	1	37	6	11	30	4320	744	40	10
6.6.1	mac	0	2023-01-31	15:24:09	1	1	1	experiment	2	dispFeedback_noU	1000	1	37	IEV	POS	1	158	0.3399618022146047025	53.5521013250206507905	158	0.127817811357746336	37	1	10	0	0	0	0	1	37	7	11	30	4181	902	50	10
6.6.1	mac	0	2023-01-31	15:24:09	1	1	1	experiment	2	experiment_noU	3947	1	91	IEV	POS	1						91	1	10	0	0	0	0	1	37	7	11	30	4181	902	50	10
6.6.1	mac	0	2023-01-31	15:24:09	1	1	1	experiment	2	dispFeedback_noU	1000	1	91	IEV	POS	1	243	0.2306369138061106772	55.9340110346610117631	0	0.2772281811985252697	91	1	10	0	0	0	0	1	37	8	11	30	4747	902	50	0
6.6.1	mac	0	2023-01-31	15:24:09	1	1	1	experiment	2	experiment_noU	1211	1	37	IEV	POS	1						37	1	10	0	0	0	0	1	37	8	11	30	4747	902	50	0
6.6.1	mac	0	2023-01-31	15:24:09	1	1	1	experiment	2	dispFeedback_noU	1000	1	37	IEV	POS	1	174	0.3139434372312920329	54.7010242732723455106	0	0.4035252759706986492	37	1	10	0	0	0	0	1	37	9	11	30	4311	902	50	0
6.6.1	mac	0	2023-01-31	15:24:09	1	1	1	experiment	2	experiment_noU	910	1	38	IEV	POS	1						38	1	10	0	0	0	0	1	37	9	11	30	4311	902	50	0
6.6.1	mac	0	2023-01-31	15:24:09	1	1	1	experiment	2	dispFeedback_noU	1000	1	38	IEV	POS	1	146	0.3645500493190549918	53.067539935262942663	146	0.0393346867150009341	38	1	10	0	0	0	0	1	37	10	11	30	4060	1048	60	10
6.6.1	mac	0	2023-01-31	15:24:09	1	1	1	experiment	2	experiment_noU	1176	1	25	IEV	POS	1						25	1	10	0	0	0	0	1	37	10	11	30	4060	1048	60	10
6.6.1	mac	0	2023-01-31	15:24:09	1	1	1	experiment	2	dispFeedback_noU	1000	1	25	IEV	POS	1	119	0.444131500328672546	52.6605090618194395802	119	0.0215494731724144607	25	1	10	0	0	0	0	1	37	11	11	30	3676	1167	68	8
6.6.1	mac	0	2023-01-31	15:24:09	1	1	1	experiment	2	experiment_U	648	1	32	IEV	POS	1						32	1	10	0	0	0	0	1	37	11	11	30	3676	1167	68	8
6.6.1	mac	0	2023-01-31	15:24:09	1	1	1	experiment	2	dispFeedback_U	1000	1	32	IEV	POS	1	96	0.4813190527415853737	46.4204870405648222231	96	0.0426905327575957741	32	1	10	0	0	1	0	1	37	12	11	30	3498	1263	75	7
6.6.1	mac	0	2023-01-31	15:24:09	1	1	1	experiment	2	experiment_U	1857	1	99	IEV	POS	1						99	1	10	0	0	1	0	1	37	12	11	30	3498	1263	75	7
6.6.1	mac	0	2023-01-31	15:24:09	1	1	1	experiment	2	dispFeedback_U	1000	1	99	IEV	POS	1	73	0.5720862593687620068	41.9996474332891267522	73	0.0108524088307405848	99	1	10	0	0	2	0	1	37	13	11	30	3057	1336	80	5
6.6.1	mac	0	2023-01-31	15:24:09	1	1	1	experiment	2	experiment_U	562	1	53	IEV	POS	1						53	1	10	0	0	2	0	1	37	13	11	30	3057	1336	80	5
6.6.1	mac	0	2023-01-31	15:24:09	1	1	1	experiment	2	dispFeedback_U	1000	1	53	IEV	POS	1	198	0.2843408505781663265	56.3953909507796282696	198	0.1732468021039960115	53	1	10	0	0	3	0	1	37	14	11	30	4462	1534	90	10
6.6.1	mac	0	2023-01-31	15:24:09	1	1	1	experiment	2	experiment_U	495	1	68	IEV	POS	1						68	1	10	0	0	3	0	1	37	14	11	30	4462	1534	90	10
6.6.1	mac	0	2023-01-31	15:24:09	1	1	1	experiment	2	dispFeedback_U	1000	1	68	IEV	POS	1	22	0.8992851126795168293	19.5737083524327069028	22	0.4174148557748214583	68	1	10	1	0	4	0	1	37	15	11	30	145	1556	91	1
6.6.1	mac	0	2023-01-31	15:24:09	1	1	1	experiment	2	experiment_U	3478	1	76	IEV	POS	1						76	1	10	1	0	4	0	1	37	15	11	30	145	1556	91	1
6.6.1	mac	0	2023-01-31	15:24:09	1	1	1	experiment	2	dispFeedback_U	1000	1	76	IEV	POS	1	100	0.4750565958303190062	47.683256355432618534	100	0.3376106523996244002	76	1	10	1	0	5	0	1	37	16	11	30	3528	1656	98	7
6.6.1	mac	0	2023-01-31	15:24:09	1	1	1	experiment	2	experiment_U	2960	1	94	IEV	POS	1						94	1	10	1	0	5	0	1	37	16	11	30	3528	1656	98	7
6.6.1	mac	0	2023-01-31	15:24:09	1	1	1	experiment	2	dispFeedback_U	1000	1	94	IEV	POS	1	127	0.3954229531061559944	50.367619589990312079	127	0.3539354547052493971	94	1	10	1	0	6	0	1	37	17	11	30	3910	1783	107	9
6.6.1	mac	0	2023-01-31	15:24:09	1	1	1	experiment	2	experiment_U	4026	1	72	IEV	POS	1						72	1	10	1	0	6	0	1	37	17	11	30	3910	1783	107	9
6.6.1	mac	0	2023-01-31	15:24:09	1	1	1	experiment	2	dispFeedback_U	1000	1	72	IEV	POS	1	133	0.4024679866660054173	53.6934812163593235823	133	0.150882874883451229	72	1	10	1	0	7	0	1	37	18	11	30	3876	1916	116	9
6.6.1	mac	0	2023-01-31	15:24:09	1	1	1	experiment	2	experiment_U	2059	1	13	IEV	POS	1						13	1	10	1	0	7	0	1	37	18	11	30	3876	1916	116	9
6.6.1	mac	0	2023-01-31	15:24:09	1	1	1	experiment	2	dispFeedback_U	1000	1	13	IEV	POS	1	133	0.3852975864773013348	51.1703703608336439856	133	0.2451620739291333895	13	1	10	1	0	8	0	1	37	19	11	30	3959	2049	125	9
6.6.1	mac	0	2023-01-31	15:24:09	1	1	1	experiment	2	experiment_U	696	1	48	IEV	POS	1						48	1	10	1	0	8	0	1	37	19	11	30	3959	2049	125	9
6.6.1	mac	0	2023-01-31	15:24:09	1	1	1	experiment	2	dispFeedback_U	1000	1	48	IEV	POS	1	177	0.3070189842279797965	54.2913106715948643455	0	0.3576847292384329746	48	1	10	1	0	9	0	1	37	20	11	30	4346	2049	125	0
6.6.1	mac	0	2023-01-31	15:24:09	1	1	1	experiment	2	experiment_U	1981	1	5	IEV	POS	1						5	1	10	1	0	9	0	1	37	20	11	30	4346	2049	125	0
6.6.1	mac	0	2023-01-31	15:24:09	1	1	1	experiment	2	dispFeedback_U	1000	1	5	IEV	POS	1	101	0.4848656028401698292	49.1508487662823085884	0	0.4904757223535505251	5	1	10	1	0	10	0	1	37	21	11	30	3481	2049	125	0
6.6.1	mac	0	2023-01-31	15:24:09	1	1	1	experiment	2	experiment_U	809	1	43	IEV	POS	1						43	1	10	1	0	10	0	1	37	21	11	30	3481	2049	125	0
6.6.1	mac	0	2023-01-31	15:24:09	1	1	1	experiment	2	dispFeedback_U	1000	1	43	IEV	POS	1	166	0.3343203266195914902	55.4102858021894988383	0	0.3972693300799627902	43	1	10	1	0	11	0	1	37	22	11	30	4209	2049	125	0
6.6.1	mac	0	2023-01-31	15:24:09	1	1	1	experiment	2	experiment_U	2334	1	15	IEV	POS	1						15	1	10	1	0	11	0	1	37	22	11	30	4209	2049	125	0
6.6.1	mac	0	2023-01-31	15:24:09	1	1	1	experiment	2	dispFeedback_U	1000	1	15	IEV	POS	1	174	0.3093889946683699987	53.9077663228968333442	0	0.4081955416845612916	15	1	10	1	0	12	0	1	37	23	11	30	4334	2049	125	0
6.6.1	mac	0	2023-01-31	15:24:09	1	1	1	experiment	2	experiment_U	1376	1	35	IEV	POS	1						35	1	10	1	0	12	0	1	37	23	11	30	4334	2049	125	0
6.6.1	mac	0	2023-01-31	15:24:09	1	1	1	experiment	2	dispFeedback_U	1000	1	35	IEV	POS	1	186	0.3011130683798056706	55.9793225778684586658	0	0.3895262622715733869	35	1	10	1	0	13	0	1	37	24	11	30	4376	2049	125	0
6.6.1	mac	0	2023-01-31	15:24:09	1	1	1	experiment	2	experiment_U	3127	1	96	IEV	POS	1						96	1	10	1	0	13	0	1	37	24	11	30	4376	2049	125	0
6.6.1	mac	0	2023-01-31	15:24:09	1	1	1	experiment	2	dispFeedback_U	1000	1	96	IEV	POS	1	155	0.3407693054592847437	52.8436046472490374981	0	0.363206491657347974	96	1	10	1	0	14	0	1	37	25	11	30	4177	2049	125	0
6.6.1	mac	0	2023-01-31	15:24:09	1	1	1	experiment	2	experiment_U	584	1	26	IEV	POS	1						26	1	10	1	0	14	0	1	37	25	11	30	4177	2049	125	0
6.6.1	mac	0	2023-01-31	15:24:09	1	1	1	experiment	2	dispFeedback_U	1000	1	26	IEV	POS	1	83	0.5565037346417763819	46.2436534128584781911	83	0.1234709137639661558	26	1	10	1	0	15	0	1	37	26	11	30	3134	2132	131	6
6.6.1	mac	0	2023-01-31	15:24:09	1	1	1	experiment	2	experiment_U	2505	1	90	IEV	POS	1						90	1	10	1	0	15	0	1	37	26	11	30	3134	2132	131	6
6.6.1	mac	0	2023-01-31	15:24:09	1	1	1	experiment	2	dispFeedback_U	1000	1	90	IEV	POS	1	89	0.5317413765561442851	47.4779026802170704968	89	0.4954261709925313895	90	1	10	1	0	16	0	1	37	27	11	30	3255	2221	138	7
6.6.1	mac	0	2023-01-31	15:24:09	1	1	1	experiment	2	experiment_U	1386	1	19	IEV	POS	1						19	1	10	1	0	16	0	1	37	27	11	30	3255	2221	138	7
6.6.1	mac	0	2023-01-31	15:24:09	1	1	1	experiment	2	dispFeedback_U	1000	1	19	IEV	POS	1	107	0.4629396228445549766	49.6415269634677542854	107	0.398653729213088226	19	1	10	1	0	17	0	1	37	28	11	30	3586	2328	146	8
6.6.1	mac	0	2023-01-31	15:24:09	1	1	1	experiment	2	experiment_U	558	1	55	IEV	POS	1						55	1	10	1	0	17	0	1	37	28	11	30	3586	2328	146	8
6.6.1	mac	0	2023-01-31	15:24:09	1	1	1	experiment	2	dispFeedback_U	1000	1	55	IEV	POS	1	208	0.2659138512028618173	55.2261312517433324842	208	0.0024458839330929062	55	1	10	1	0	18	0	1	37	29	11	30	4558	2536	156	10
6.6.1	mac	0	2023-01-31	15:24:09	1	1	1	experiment	2	experiment_U	3463	1	84	IEV	POS	1						84	1	10	1	0	18	0	1	37	29	11	30	4558	2536	156	10
6.6.1	mac	0	2023-01-31	15:24:09	1	1	1	experiment	2	dispFeedback_U	1000	1	84	IEV	POS	1	136	0.3948020537693558984	53.551922109426101315	136	0.366775428496016076	84	1	10	1	0	19	0	1	37	30	11	30	3913	2672	165	9
6.6.1	mac	0	2023-01-31	15:24:09	1	1	1	experiment	2	experiment_U	3222	1	90	IEV	POS	1						90	1	10	1	0	19	0	1	37	30	11	30	3913	2672	165	9
6.6.1	mac	0	2023-01-31	15:24:09	1	1	1	experiment	2	dispFeedback_U	1000	1	90	IEV	POS	1	136	0.3826173198860199354	52.0417582099819000518	136	0.2517795907919713194	90	1	10	1	0	20	0	1	37	31	11	30	3972	2808	174	9
6.6.1	mac	0	2023-01-31	15:24:09	1	1	1	experiment	2	experiment_U	1424	1	94	IEV	POS	1						94	1	10	1	0	20	0	1	37	31	11	30	3972	2808	174	9
6.6.1	mac	0	2023-01-31	15:24:09	1	1	1	experiment	2	dispFeedback_U	1000	1	94	IEV	POS	1	49	0.7006322549450754167	34.0742390812986215565	49	0.3845988904090130167	94	1	10	1	0	21	0	1	37	32	11	30	2374	2857	178	4
6.6.1	mac	0	2023-01-31	15:24:09	1	1	1	experiment	2	experiment_U	4041	1	69	IEV	POS	1						69	1	10	1	0	21	0	1	37	32	11	30	2374	2857	178	4
6.6.1	mac	0	2023-01-31	15:24:09	1	1	1	experiment	2	dispFeedback_U	1000	1	69	IEV	POS	1	122	0.430560345387646537	52.7162900433762047214	122	0.1632857838792926009	69	1	10	1	1	21	1	1	37	33	11	30	3741	2979	186	8
6.6.1	mac	0	2023-01-31	15:24:09	1	1	1	experiment	2	experiment_U	4109	1	69	IEV	POS	1						69	1	10	1	1	21	1	1	37	33	11	30	3741	2979	186	8
6.6.1	mac	0	2023-01-31	15:24:09	1	1	1	experiment	2	dispFeedback_U	1000	1	69	IEV	POS	1	121	0.4163896850117718706	50.3041661899980354633	121	0.117633673739068606	69	1	10	1	2	21	2	1	37	34	11	30	3809	3100	194	8
6.6.1	mac	0	2023-01-31	15:24:09	1	1	1	experiment	2	experiment_U	3877	1	75	IEV	POS	1						75	1	10	1	2	21	2	1	37	34	11	30	3809	3100	194	8
6.6.1	mac	0	2023-01-31	15:24:09	1	1	1	experiment	2	dispFeedback_U	1000	1	75	IEV	POS	1	132	0.4022605739687878379	53.2981479796774806346	132	0.1556270305662478814	75	1	10	1	3	21	3	1	37	35	11	30	3877	3232	203	9
6.6.1	mac	0	2023-01-31	15:24:09	1	1	1	experiment	2	experiment_U	3344	1	84	IEV	POS	1						84	1	10	1	3	21	3	1	37	35	11	30	3877	3232	203	9
6.6.1	mac	0	2023-01-31	15:24:09	1	1	1	experiment	2	dispFeedback_U	1000	1	84	IEV	POS	1	125	0.4195124891832592295	52.2708056323486758288	125	0.3766294270466615801	84	1	10	1	4	21	4	1	37	36	11	30	3794	3357	212	9
6.6.1	mac	0	2023-01-31	15:24:09	1	1	1	experiment	2	experiment_noU	2861	1	90	IEV	POS	1						90	1	10	1	4	21	4	1	37	36	11	30	3794	3357	212	9
6.6.1	mac	0	2023-01-31	15:24:09	1	1	1	experiment	2	dispFeedback_noU	1000	1	90	IEV	POS	1	106	0.4577147918396962112	48.4936995330849924812	106	0.3432621247701491685	90	1	10	1	4	21	4	1	37	37	11	30	3611	3463	220	8
6.6.1	mac	0	2023-01-31	15:24:09	1	1	1	experiment	3	experiment_noU	0	1	93	DEV	POS	1						93	5	15	0	0	0	0	2	35	0	9	28	3611	3463	220	8
