build	computer.platform	computer.touch	date	time	subject	group	sessionid	blockcode	blocknum	trialcode	latency	randStart	startPos	scrfunc	rtvspos	randStart	circleproportion	mag	freq	ev	inc	rng	startPos	n_revolutions	totalPoints	totalEarnings	Earnings
6.6.1	mac	0	2023-01-19	12:05:55	1	1	1	experiment	1	experiment_noU	2164	1	40	CEV	POS	1	0.3300000000000000155						40	3281	0	0	
6.6.1	mac	0	2023-01-19	12:05:55	1	1	1	experiment	1	dispFeedback_noU	1000	1	40	CEV	POS	1	0.3300000000000000155	48	0.8408571428571428585	40.3634285714285709901	48	0.084335861514400659	40	3281	48	6	6
6.6.1	mac	0	2023-01-19	12:05:55	1	1	1	experiment	1	experiment_noU	2477	1	33	CEV	POS	1	0.3300000000000000155						33	7792	48	6	6
6.6.1	mac	0	2023-01-19	12:05:55	1	1	1	experiment	1	dispFeedback_noU	1000	1	33	CEV	POS	1	0.3300000000000000155	47	0.8461428571428570855	39.5384285714285681479	0	0.8828975027154426503	33	7792	48	6	0
6.6.1	mac	0	2023-01-19	12:05:55	1	1	1	experiment	1	experiment_U	793	1	34	CEV	POS	1	0.3300000000000000155						34	10609	48	6	0
6.6.1	mac	0	2023-01-19	12:05:55	1	1	1	experiment	1	dispFeedback_U	1000	1	34	CEV	POS	1	0.3300000000000000155	100	0.3652857142857143247	36.6347142857142955563	100	0.273667306702972235	34	10609	148	15	9
6.6.1	mac	0	2023-01-19	12:05:55	1	1	1	experiment	1	experiment_U	2233	1	99	CEV	POS	1	0.3300000000000000155						99	14863	148	15	9
6.6.1	mac	0	2023-01-19	12:05:55	1	1	1	experiment	1	dispFeedback_U	1000	1	99	CEV	POS	1	0.3300000000000000155	93	0.4095714285714285863	38.2287142857142896446	93	0.3701350501203292676	99	14863	241	24	9
6.6.1	mac	0	2023-01-19	12:05:55	1	1	1	experiment	1	experiment_U	2924	1	85	CEV	POS	1	0.3300000000000000155						85	19823	241	24	9
6.6.1	mac	0	2023-01-19	12:05:55	1	1	1	experiment	1	dispFeedback_U	1000	1	85	CEV	POS	1	0.3300000000000000155	86	0.4108571428571428097	35.3565714285714207676	0	0.8240680757034728465	85	19823	241	24	0
6.6.1	mac	0	2023-01-19	12:05:55	1	1	1	experiment	1	experiment_U	246	1	74	CEV	POS	1	0.3300000000000000155						74	22093	241	24	0
6.6.1	mac	0	2023-01-19	12:05:55	1	1	1	experiment	1	dispFeedback_U	1000	1	74	CEV	POS	1	0.3300000000000000155	44	0.8719999999999999973	38.7439999999999997726	0	0.9824331605300384851	74	22093	241	24	0
6.6.1	mac	0	2023-01-19	12:05:55	1	1	1	experiment	1	experiment_U	347	1	6	CEV	POS	1	0.3300000000000000155						6	24462	241	24	0
6.6.1	mac	0	2023-01-19	12:05:55	1	1	1	experiment	1	dispFeedback_U	1000	1	6	CEV	POS	1	0.3300000000000000155	59	0.6290000000000000036	37	59	0.1885483130320320666	6	24462	300	30	6
6.6.1	mac	0	2023-01-19	12:05:55	1	1	1	experiment	1	experiment_U	332	1	36	CEV	POS	1	0.3300000000000000155						36	26829	300	30	6
6.6.1	mac	0	2023-01-19	12:05:55	1	1	1	experiment	1	dispFeedback_U	1000	1	36	CEV	POS	1	0.3300000000000000155	93	0.416857142857142815	38.667428571428565931	93	0.3891254550286394887	36	26829	393	39	9
6.6.1	mac	0	2023-01-19	12:05:55	1	1	1	experiment	1	experiment_U	541	1	51	CEV	POS	1	0.3300000000000000155						51	29404	393	39	9
6.6.1	mac	0	2023-01-19	12:05:55	1	1	1	experiment	1	dispFeedback_U	1000	1	51	CEV	POS	1	0.3300000000000000155	131	0.2798571428571428044	36.7201428571428536429	0	0.7299514524009896865	51	29404	393	39	0
6.6.1	mac	0	2023-01-19	12:05:55	1	1	1	experiment	1	experiment_U	598	1	88	CEV	POS	1	0.3300000000000000155						88	32027	393	39	0
6.6.1	mac	0	2023-01-19	12:05:55	1	1	1	experiment	1	dispFeedback_U	1000	1	88	CEV	POS	1	0.3300000000000000155	55	0.7217142857142857526	39.886857142857145675	55	0.583746604524493784	88	32027	448	45	6
6.6.1	mac	0	2023-01-19	12:05:55	1	1	1	experiment	1	experiment_noU	0	1	64	CEV	POS	1	0.3300000000000000155						64	33171	448	45	6
