build	computer.platform	computer.touch	date	time	subject	group	sessionid	blockcode	blocknum	trialcode	latency	randStart	startPos	scrfunc	rtvspos	randStart	circleproportion	mag	freq	ev	inc	rng	startPos	n_revolutions	totalPoints	totalEarnings	Earnings
6.6.1	mac	0	2023-01-18	13:50:03	1	1	1	experiment	1	experiment_noU	327	1	51	DEV	POS	1	0.3300000000000000155						51	1419	0	0	
6.6.1	mac	0	2023-01-18	13:50:03	1	1	1	experiment	1	dispFeedback_noU	1000	1	51	DEV	POS	1	0.3300000000000000155	68	0.2699621355583911586	18.2253606457457628665	0	0.9457826090384700013	51	1419	0	0	0
6.6.1	mac	0	2023-01-18	13:50:03	1	1	1	experiment	1	experiment_noU	1275	1	56	DEV	POS	1	0.3300000000000000155						56	4715	0	0	0
6.6.1	mac	0	2023-01-18	13:50:03	1	1	1	experiment	1	dispFeedback_noU	1000	1	56	DEV	POS	1	0.3300000000000000155	63	0.8102980682230298548	50.6523831979264116399	63	0.4591610125403760567	56	4715	63	7	7
6.6.1	mac	0	2023-01-18	13:50:03	1	1	1	experiment	1	experiment_noU	1015	1	19	DEV	POS	1	0.3300000000000000155						19	7754	63	7	7
6.6.1	mac	0	2023-01-18	13:50:03	1	1	1	experiment	1	dispFeedback_noU	1000	1	19	DEV	POS	1	0.3300000000000000155	68	0.3414682876386552213	23.0527984171827000637	68	0.1110234048941692864	19	7754	131	14	7
6.6.1	mac	0	2023-01-18	13:50:03	1	1	1	experiment	1	experiment_noU	701	1	28	DEV	POS	1	0.3300000000000000155						28	10474	131	14	7
6.6.1	mac	0	2023-01-18	13:50:03	1	1	1	experiment	1	dispFeedback_noU	1000	1	28	DEV	POS	1	0.3300000000000000155	68	0.3306648382844494805	22.3234488723245441122	68	0.2345634445628531906	28	10474	199	21	7
6.6.1	mac	0	2023-01-18	13:50:03	1	1	1	experiment	1	experiment_noU	1104	1	24	DEV	POS	1	0.3300000000000000155						24	13609	199	21	7
6.6.1	mac	0	2023-01-18	13:50:03	1	1	1	experiment	1	dispFeedback_noU	1000	1	24	DEV	POS	1	0.3300000000000000155	68	0.3149453975754529234	21.2622168018406689782	0	0.6985179601932218763	24	13609	199	21	0
6.6.1	mac	0	2023-01-18	13:50:03	1	1	1	experiment	1	experiment_noU	450	1	77	DEV	POS	1	0.3300000000000000155						77	16072	199	21	0
6.6.1	mac	0	2023-01-18	13:50:03	1	1	1	experiment	1	dispFeedback_noU	1000	1	77	DEV	POS	1	0.3300000000000000155	67	0.7518663199496276039	50.0072329519842071477	67	0.736433072187107296	77	16072	266	28	7
6.6.1	mac	0	2023-01-18	13:50:03	1	1	1	experiment	1	experiment_noU	911	1	65	DEV	POS	1	0.3300000000000000155						65	19000	266	28	7
6.6.1	mac	0	2023-01-18	13:50:03	1	1	1	experiment	1	dispFeedback_noU	1000	1	65	DEV	POS	1	0.3300000000000000155	69	0.7875741937517182212	53.9573407120006081072	69	0.2855765009963830425	65	19000	335	35	7
6.6.1	mac	0	2023-01-18	13:50:03	1	1	1	experiment	2	experiment_noU	1305	1	39	IEV	POS	1	0.3300000000000000155						39	22343	335	35	7
6.6.1	mac	0	2023-01-18	13:50:03	1	1	1	experiment	2	dispFeedback_noU	1000	1	39	IEV	POS	1	0.3300000000000000155	225	0.9688562194924126292	218.0590972620474587984	225	0.8819328266852378695	39	22343	560	35	7
6.6.1	mac	0	2023-01-18	13:50:03	1	1	1	experiment	2	experiment_noU	995	1	34	IEV	POS	1	0.3300000000000000155						34	25367	560	35	7
6.6.1	mac	0	2023-01-18	13:50:03	1	1	1	experiment	2	dispFeedback_noU	1000	1	34	IEV	POS	1	0.3300000000000000155	157	1.0384619332903135547	163.5024395769238765297	157	0.0412271481568988324	34	25367	717	35	7
6.6.1	mac	0	2023-01-18	13:50:03	1	1	1	experiment	2	experiment_noU	1466	1	9	IEV	POS	1	0.3300000000000000155						9	28854	717	35	7
6.6.1	mac	0	2023-01-18	13:50:03	1	1	1	experiment	2	dispFeedback_noU	1000	1	9	IEV	POS	1	0.3300000000000000155	99	1.1055860439612950064	109.202247977997743078	99	0.7577262089489321673	9	28854	816	44	9
6.6.1	mac	0	2023-01-18	13:50:03	1	1	1	experiment	2	experiment_noU	1982	1	6	IEV	POS	1	0.3300000000000000155						6	32869	816	44	9
6.6.1	mac	0	2023-01-18	13:50:03	1	1	1	experiment	2	dispFeedback_noU	1000	1	6	IEV	POS	1	0.3300000000000000155	118	1.0793331328988928774	126.9597167777904331842	118	0.7030431213097281251	6	32869	934	44	9
6.6.1	mac	0	2023-01-18	13:50:03	1	1	1	experiment	2	experiment_noU	2061	1	20	IEV	POS	1	0.3300000000000000155						20	36949	934	44	9
6.6.1	mac	0	2023-01-18	13:50:03	1	1	1	experiment	2	dispFeedback_noU	1000	1	20	IEV	POS	1	0.3300000000000000155	195	0.9943909776556761893	193.8282552609570643654	195	0.6776784662338156684	20	36949	1129	44	9
6.6.1	mac	0	2023-01-18	13:50:03	1	1	1	experiment	2	experiment_noU	1369	1	35	IEV	POS	1	0.3300000000000000155						35	40356	1129	44	9
6.6.1	mac	0	2023-01-18	13:50:03	1	1	1	experiment	2	dispFeedback_noU	1000	1	35	IEV	POS	1	0.3300000000000000155	205	0.9868868209143615289	202.0591423465711500285	205	0.4653858429438867406	35	40356	1334	44	9
6.6.1	mac	0	2023-01-18	13:50:03	1	1	1	experiment	2	experiment_noU	0	1	19	IEV	POS	1	0.3300000000000000155						19	41852	1334	44	9
