build	computer.platform	computer.touch	date	time	subject	group	sessionid	blockcode	blocknum	trialcode	preClockFreezeBlock	list.preClockFreeze.currentvalue	latency	list.ISI.currentvalue	list.ITI.currentvalue	trial.instructions5_1.response	trial.instructions5_2.response	startPos	scrfunc	rtvspos	randStart	mag	freq	ev	inc	inc_rg	rng	fogPos1	fogPos3	fogPos5	fogPos_out	list.wind_size.currentvalue	windPos2	windPos4	windPos6	windPos_out	chooseFog1	chooseWind2	chooseFog3	chooseWind4	chooseFog5	chooseWind6	choose_unc_att1	choose_unc_att_out1	choose_unc_att2	choose_unc_att_out2	choose_unc_att3	choose_unc_att_out3	choose_unc_att4	choose_unc_att_out4	unc_att_count1	unc_att_count_out1	unc_att_count2	unc_att_count_out2	unc_att_count3	unc_att_count_out3	unc_att_count4	unc_att_count_out4	unc_att_count5	unc_att_count_out5	unc_att_count6	unc_att_count_out6	chooseAttentionalControl	chooseUncertainty	blockCount	ntrials	trialCount	meta_trialCount	trialCount_dum	attentional_control	local_uncertainty	unc_att_start1	unc_att_start2	unc_att_start3	unc_att_start4	unc_att_start5	unc_att_start6	unc_att_block	list.rt_0.currentindex	rt_shifted	pos_shifted	totalPoints	totalEarnings	Earnings
6.6.1	mac	0	2023-09-15	15:19:39	1	1	1	experiment	1	experiment_noU	2	750	2170	250	360			51	dynamic	POS	1							45	30	45			25	1	35		0	0	0	0	0	0	0	0	0	0	0	0	0	0	0	0	0	0	0	0	0	0	0	0	0	0	0	0	1		1	1	1	cloud	wind	7	17	26	37	0	0	0	0			0	0	
6.6.1	mac	0	2023-09-15	15:19:39	1	1	1	experiment	1	dispFeedback_noU	2	750	1000	250	360			51	dynamic	POS	1	37	0.6999999999999999556	25.8999999999999985789	1	1	0.7886588503114549953	45	30	45			25	1	35		0	0	0	0	0	0	0	0	0	0	0	0	0	0	0	0	0	0	0	0	0	0	0	0	0	0	0	0	1		1	1	1	cloud	wind	7	17	26	37	0	0	0	1	970	69.8400000000000034106	1	0	1
6.6.1	mac	0	2023-09-15	15:19:39	1	1	1	experiment	1	experiment_noU	2	750	728	540	260			25	dynamic	POS	1					1		45	30	45			25	1	35		0	0	0	0	0	0	0	0	0	0	0	0	0	0	0	0	0	0	0	0	0	0	0	0	0	0	0	0	1		2	2	1	cloud	wind	7	17	26	37	0	0	0	1	970	69.8400000000000034106	1	0	1
6.6.1	mac	0	2023-09-15	15:19:39	1	1	1	experiment	1	dispFeedback_noU	2	750	1000	540	260			25	dynamic	POS	1	1	0.6999999999999999556	0.6999999999999999556	1	1	0.6459567704344999495	45	30	45			25	1	35		0	0	0	0	0	0	0	0	0	0	0	0	0	0	0	0	0	0	0	0	0	0	0	0	0	0	0	0	1		2	2	1	cloud	wind	7	17	26	37	0	0	0	2	3228	232.4159999999999968168	2	0	1
6.6.1	mac	0	2023-09-15	15:19:39	1	1	1	experiment	1	experiment_noU	2	750	578	390	210			92	dynamic	POS	1					1		45	30	45			25	1	35		0	0	0	0	0	0	0	0	0	0	0	0	0	0	0	0	0	0	0	0	0	0	0	0	0	0	0	0	1		3	3	1	cloud	wind	7	17	26	37	0	0	0	2	3228	232.4159999999999968168	2	0	1
6.6.1	mac	0	2023-09-15	15:19:39	1	1	1	experiment	1	dispFeedback_noU	2	750	1000	390	210			92	dynamic	POS	1	25	0.6999999999999999556	17.5	25	23	0.5605543624983528872	45	30	45			25	1	35		0	0	0	0	0	0	0	0	0	0	0	0	0	0	0	0	0	0	0	0	0	0	0	0	0	0	0	0	1		3	3	1	cloud	wind	7	17	26	37	0	0	0	3	1428	102.8160000000000025011	27	0	23
6.6.1	mac	0	2023-09-15	15:19:39	1	1	1	experiment	1	experiment_noU	2	750	1453	310	410			31	dynamic	POS	1					23		45	30	45			25	1	35		0	0	0	0	0	0	0	0	0	0	0	0	0	0	0	0	0	0	0	0	0	0	0	0	0	0	0	0	1		4	4	1	cloud	wind	7	17	26	37	0	0	0	3	1428	102.8160000000000025011	27	0	23
6.6.1	mac	0	2023-09-15	15:19:39	1	1	1	experiment	1	dispFeedback_noU	2	750	1000	310	410			31	dynamic	POS	1	62	0.6999999999999999556	43.3999999999999985789	62	64	0.6951946596836658943	45	30	45			25	1	35		0	0	0	0	0	0	0	0	0	0	0	0	0	0	0	0	0	0	0	0	0	0	0	0	0	0	0	0	1		4	4	1	cloud	wind	7	17	26	37	0	0	0	4	4253	306.2160000000000081855	89	0	64
6.6.1	mac	0	2023-09-15	15:19:39	1	1	1	experiment	1	experiment_noU	2	750	3084	450	100			4	dynamic	POS	1					64		45	30	45			25	1	35		0	0	0	0	0	0	0	0	0	0	0	0	0	0	0	0	0	0	0	0	0	0	0	0	0	0	0	0	1		5	5	1	cloud	wind	7	17	26	37	0	0	0	4	4253	306.2160000000000081855	89	0	64
6.6.1	mac	0	2023-09-15	15:19:39	1	1	1	experiment	1	dispFeedback_noU	2	750	1000	450	100			4	dynamic	POS	1	120	0.6999999999999999556	84	1	1	0.8400619404483731234	45	30	45			25	1	35		0	0	0	0	0	0	0	0	0	0	0	0	0	0	0	0	0	0	0	0	0	0	0	0	0	0	0	0	1		5	5	1	cloud	wind	7	17	26	37	0	0	0	5	4534	326.4479999999999790816	90	0	1
6.6.1	mac	0	2023-09-15	15:19:39	1	1	1	experiment	1	experiment_noU	2	750	1276	350	120			65	dynamic	POS	1					1		45	30	45			25	1	35		0	0	0	0	0	0	0	0	0	0	0	0	0	0	0	0	0	0	0	0	0	0	0	0	0	0	0	0	1		6	6	1	cloud	wind	7	17	26	37	0	0	0	5	4534	326.4479999999999790816	90	0	1
6.6.1	mac	0	2023-09-15	15:19:39	1	1	1	experiment	1	dispFeedback_noU	2	750	1000	350	120			65	dynamic	POS	1	47	0.6999999999999999556	32.8999999999999985789	47	44	0.1791904617983825776	45	30	45			25	1	35		0	0	0	0	0	0	0	0	0	0	0	0	0	0	0	0	0	0	0	0	0	0	0	0	0	0	0	0	1		6	6	1	cloud	wind	7	17	26	37	0	0	0	6	776	55.8719999999999998863	137	0	44
6.6.1	mac	0	2023-09-15	15:19:39	1	1	1	experiment	1	experiment_U	2	750	715	560	150			81	dynamic	POS	1					44		45	30	45			25	1	35		0	0	0	0	0	0	0	0	0	0	0	0	0	0	0	1	0	0	0	0	0	0	0	0	0	0	0	0	1		7	7	1	cloud	wind	7	17	26	37	0	0	0	6	776	55.8719999999999998863	137	0	44
6.6.1	mac	0	2023-09-15	15:19:39	1	1	1	experiment	1	dispFeedback_U	2	750	1000	560	150			81	dynamic	POS	1	33	0.6999999999999999556	23.0999999999999978684	1	1	0.7168964798834399632	45	30	45			25	1	35		0	0	0	0	0	0	0	0	0	0	0	0	0	0	0	1	0	0	0	0	0	0	0	0	0	0	0	0	1		7	7	1	cloud	wind	7	17	26	37	0	0	0	7	1015	73.0799999999999982947	138	0	1
6.6.1	mac	0	2023-09-15	15:19:39	1	1	1	experiment	1	experiment_U	2	750	1216	230	160			37	dynamic	POS	1					1		45	30	45	60	30pct	25	1	35		0	0	0	0	0	0	0	0	0	0	0	0	0	0	0	2	0	0	0	0	0	0	0	0	0	0	0	0	1		8	8	2	cloud	wind	7	17	26	37	0	0	1	7	1015	73.0799999999999982947	138	0	1
6.6.1	mac	0	2023-09-15	15:19:39	1	1	1	experiment	1	dispFeedback_U	2	750	1000	230	160			37	dynamic	POS	1	53	0.6999999999999999556	37.0999999999999943157	53	54	0.2919282643804159694	45	30	45	60	30pct	25	1	35		0	0	0	0	0	0	0	0	0	0	0	0	0	0	1	2	0	0	0	0	0	0	0	0	0	0	0	0	1		8	8	2	cloud	wind	7	17	26	37	0	0	1	8	4316	310.7520000000000095497	191	0	54
6.6.1	mac	0	2023-09-15	15:19:39	1	1	1	experiment	1	experiment_U	2	750	1411	550	440			64	dynamic	POS	1					54		45	30	45	60	30pct	25	1	35		0	0	0	0	0	0	0	0	0	0	0	0	0	0	1	3	0	0	0	0	0	0	0	0	0	0	0	0	1		9	9	3	cloud	wind	7	17	26	37	0	0	1	8	4316	310.7520000000000095497	191	0	54
6.6.1	mac	0	2023-09-15	15:19:39	1	1	1	experiment	1	dispFeedback_U	2	750	1000	550	440			64	dynamic	POS	1	71	0.6999999999999999556	49.6999999999999957367	71	69	0.6175918038044105884	45	30	45	60	30pct	25	1	35		1	0	0	0	0	0	1	1	0	0	0	0	0	0	2	3	0	0	0	0	0	0	0	0	0	0	1	0	1		9	9	3	cloud	wind	7	17	26	37	0	0	1	9	861	61.9919999999999973284	262	0	69
6.6.1	mac	0	2023-09-15	15:19:39	1	1	1	experiment	1	experiment_U	2	750	4795	470	400			95	dynamic	POS	1					69		45	30	45	60	30pct	25	1	35		1	0	0	0	0	0	1	0	0	0	0	0	0	0	2	4	0	0	0	0	0	0	0	0	0	0	0	0	1		10	10	4	cloud	wind	7	17	26	37	0	0	1	9	861	61.9919999999999973284	262	0	69
6.6.1	mac	0	2023-09-15	15:19:39	1	1	1	experiment	1	dispFeedback_U	2	750	1000	470	400			95	dynamic	POS	1	77	0.6999999999999999556	53.8999999999999985789	77	73	0.617139315376323494	45	30	45	60	30pct	25	1	35		1	0	0	0	0	0	2	1	0	0	0	0	0	0	3	4	0	0	0	0	0	0	0	0	0	0	1	0	1		10	10	4	cloud	wind	7	17	26	37	0	0	1	10	795	57.2400000000000019895	339	0	73
6.6.1	mac	0	2023-09-15	15:19:39	1	1	1	experiment	1	experiment_noU	2	750	2563	510	370			39	dynamic	POS	1					73		45	30	45		30pct	25	1	35		0	0	0	0	0	0	2	0	0	0	0	0	0	0	3	0	0	0	0	0	0	0	0	0	0	0	0	0	1		11	11	5	cloud	wind	7	12	26	37	0	0	0	10	795	57.2400000000000019895	339	0	73
6.6.1	mac	0	2023-09-15	15:19:39	1	1	1	experiment	1	dispFeedback_noU	2	750	1000	510	370			39	dynamic	POS	1	112	0.6999999999999999556	78.3999999999999914735	112	126	0.6993687592212504134	45	30	45		30pct	25	1	35		0	0	0	0	0	0	2	0	0	0	0	0	0	0	3	0	0	0	0	0	0	0	0	0	0	0	0	0	1		11	11	5	cloud	wind	7	12	26	37	0	0	0	11	763	54.9359999999999999432	451	0	126
6.6.1	mac	0	2023-09-15	15:19:39	1	1	1	experiment	1	experiment_U	2	750	3843	330	200			16	dynamic	POS	1					126		45	30	45		30pct	25	1	35		0	0	0	0	0	0	2	0	0	0	0	0	0	0	3	0	0	1	0	0	0	0	0	0	0	0	0	0	1		12	12	5	cloud	wind	7	12	26	37	0	0	0	11	763	54.9359999999999999432	451	0	126
6.6.1	mac	0	2023-09-15	15:19:39	1	1	1	experiment	1	dispFeedback_U	2	750	1000	330	200			16	dynamic	POS	1	100	0.6999999999999999556	70	1	1	0.8250929482339631749	45	30	45		30pct	25	1	35		0	0	0	0	0	0	2	0	0	0	0	0	0	0	3	0	0	1	0	0	0	0	0	0	0	0	0	0	1		12	12	5	cloud	wind	7	12	26	37	0	0	0	12	893	64.2960000000000064801	452	0	1
6.6.1	mac	0	2023-09-15	15:19:39	1	1	1	experiment	1	experiment_U	2	750	2459	570	380			39	dynamic	POS	1					1		45	30	45		30pct	25	1	35	180	0	0	0	0	0	0	2	0	0	0	0	0	0	0	3	0	0	2	0	0	0	0	0	0	0	0	0	0	1		13	13	6	cloud	wind	7	12	26	37	0	0	2	12	893	64.2960000000000064801	452	0	1
6.6.1	mac	0	2023-09-15	15:19:39	1	1	1	experiment	1	dispFeedback_U	2	750	1000	570	380			39	dynamic	POS	1	129	0.6999999999999999556	90.2999999999999971578	129	135	0.3886809000719061435	45	30	45		30pct	0	1	35	180	0	0	0	0	0	0	2	0	0	0	0	0	0	0	3	0	1	2	0	0	0	0	0	0	0	0	0	0	1		13	13	6	cloud	wind	7	12	26	37	0	0	2	13	659	47.4480000000000003979	581	0	135
6.6.1	mac	0	2023-09-15	15:19:39	1	1	1	experiment	1	experiment_U	2	750	2322	580	350			42	dynamic	POS	1					135		45	30	45		30pct	0	1	35	180	0	0	0	0	0	0	2	0	0	0	0	0	0	0	3	0	1	3	0	0	0	0	0	0	0	0	0	0	1		14	14	7	cloud	wind	7	12	26	37	0	0	2	13	659	47.4480000000000003979	581	0	135
6.6.1	mac	0	2023-09-15	15:19:39	1	1	1	experiment	1	dispFeedback_U	2	750	1000	580	350			42	dynamic	POS	1	137	0.6999999999999999556	95.8999999999999914735	137	158	0.2373959820804642518	45	30	45		30pct	0	1	35	180	0	0	0	0	0	0	2	0	0	0	0	0	0	0	3	0	2	3	0	0	0	0	0	0	0	0	0	0	1		14	14	7	cloud	wind	7	12	26	37	0	0	2	14	672	48.3840000000000003411	718	0	158
6.6.1	mac	0	2023-09-15	15:19:39	1	1	1	experiment	1	experiment_U	2	750	5062	590	190			86	dynamic	POS	1					158		45	30	45		30pct	0	1	35	180	0	0	0	0	0	0	2	0	0	0	0	0	0	0	3	0	2	4	0	0	0	0	0	0	0	0	0	0	1		15	15	8	cloud	wind	7	12	26	37	0	0	2	14	672	48.3840000000000003411	718	0	158
6.6.1	mac	0	2023-09-15	15:19:39	1	1	1	experiment	1	dispFeedback_U	2	750	1000	590	190			86	dynamic	POS	1	152	0.6999999999999999556	106.3999999999999914735	152	122	0.0685593763060307476	45	30	45		30pct	0	1	35	180	0	0	0	0	0	0	2	0	0	0	0	0	0	0	3	0	3	4	0	0	0	0	0	0	0	0	0	0	1		15	15	8	cloud	wind	7	12	26	37	0	0	2	15	612	44.0640000000000000568	870	0	122
6.6.1	mac	0	2023-09-15	15:19:39	1	1	1	experiment	1	experiment_U	2	750	4696	410	180			92	dynamic	POS	1					122		45	30	45		30pct	0	1	35	180	0	0	0	0	0	0	2	0	0	0	0	0	0	0	3	0	3	5	0	0	0	0	0	0	0	0	0	0	1		16	16	9	cloud	wind	7	12	26	37	0	0	2	15	612	44.0640000000000000568	870	0	122
6.6.1	mac	0	2023-09-15	15:19:39	1	1	1	experiment	1	dispFeedback_U	2	750	1000	410	180			92	dynamic	POS	1	154	0.6999999999999999556	107.7999999999999971578	154	159	0.6082782413829765922	45	30	45		30pct	0	1	35	180	0	0	0	0	0	0	2	0	0	0	0	0	0	0	3	0	4	5	0	0	0	0	0	0	0	0	0	0	1		16	16	9	cloud	wind	7	12	26	37	0	0	2	16	546	39.3119999999999976126	1024	0	159
6.6.1	mac	0	2023-09-15	15:19:39	1	1	1	experiment	1	preFreeze_U	2	750	424	410	180			92	dynamic	POS	1	154	0.6999999999999999556	107.7999999999999971578	154	159	0.6082782413829765922	45	30	45		30pct	0	1	35	180	0	0	0	0	0	0	2	0	0	0	0	0	0	0	3	0	4	5	0	0	0	0	0	0	0	0	0	0	1		16	16	10	cloud	wind	7	12	26	37	0	0	2	16	546	39.3119999999999976126	1024	0	159
