build	computer.platform	computer.touch	date	time	subject	group	sessionid	blockcode	blocknum	trialcode	latency	randStart	startPos	scrfunc	rtvspos	randStart	mag	freq	ev	inc	rng	startPos	fogPos1	fogPos2	chooseUncertainty1	chooseUncertainty2	uncertaintyCount1	uncertaintyCount2	blockCount	ntrials	trialCount	uncertaintyStart1	uncertaintyStart2	uncertainty_block	rt_shifted	totalPoints	totalEarnings	Earnings
6.6.1	mac	0	2023-04-26	17:02:42	1	1	1	experiment	1	experiment_noU	1834	1	51	DEV	dynamic	1						51	20	5	0	0	0	0	1	32	0	9	29	0		0	0	
6.6.1	mac	0	2023-04-26	17:02:42	1	1	1	experiment	1	dispFeedback_noU	1000	1	51	DEV	dynamic	1	0			1	0.9650208863813943827	51	20	5	0	0	0	0	1	32	1	9	29	0		1	0.5	0.5
6.6.1	mac	0	2023-04-26	17:02:42	1	1	1	experiment	1	experiment_noU	736	1	50	DEV	dynamic	1						50	20	5	0	0	0	0	1	32	1	9	29	0		1	0.5	0.5
6.6.1	mac	0	2023-04-26	17:02:42	1	1	1	experiment	1	dispFeedback_noU	1000	1	50	DEV	dynamic	1	0			1	0.4201346462173700669	50	20	5	0	0	0	0	1	32	2	9	29	0		2	1	0.5
6.6.1	mac	0	2023-04-26	17:02:42	1	1	1	experiment	1	experiment_noU	1792	1	90	DEV	dynamic	1						90	20	5	0	0	0	0	1	32	2	9	29	0		2	1	0.5
6.6.1	mac	0	2023-04-26	17:02:42	1	1	1	experiment	1	dispFeedback_noU	1000	1	90	DEV	dynamic	1	0			1	0.5710686833064697598	90	20	5	0	0	0	0	1	32	3	9	29	0		3	1.5	0.5
6.6.1	mac	0	2023-04-26	17:02:42	1	1	1	experiment	1	experiment_noU	631	1	54	DEV	dynamic	1						54	20	5	0	0	0	0	1	32	3	9	29	0		3	1.5	0.5
6.6.1	mac	0	2023-04-26	17:02:42	1	1	1	experiment	1	dispFeedback_noU	1000	1	54	DEV	dynamic	1	0			1	0.264169916804919469	54	20	5	0	0	0	0	1	32	4	9	29	0		4	2	0.5
6.6.1	mac	0	2023-04-26	17:02:42	1	1	1	experiment	1	experiment_noU	620	1	28	DEV	dynamic	1						28	20	5	0	0	0	0	1	32	4	9	29	0		4	2	0.5
6.6.1	mac	0	2023-04-26	17:02:42	1	1	1	experiment	1	dispFeedback_noU	1000	1	28	DEV	dynamic	1	0			1	0.1774326917197165676	28	20	5	0	0	0	0	1	32	5	9	29	0		5	2.5	0.5
6.6.1	mac	0	2023-04-26	17:02:42	1	1	1	experiment	1	experiment_noU	2480	1	19	DEV	dynamic	1						19	20	5	0	0	0	0	1	32	5	9	29	0		5	2.5	0.5
6.6.1	mac	0	2023-04-26	17:02:42	1	1	1	experiment	1	dispFeedback_noU	1000	1	19	DEV	dynamic	1	0			1	0.7646931609522302775	19	20	5	0	0	0	0	1	32	6	9	29	0		6	3	0.5
6.6.1	mac	0	2023-04-26	17:02:42	1	1	1	experiment	1	experiment_noU	1291	1	92	DEV	dynamic	1						92	20	5	0	0	0	0	1	32	6	9	29	0		6	3	0.5
6.6.1	mac	0	2023-04-26	17:02:42	1	1	1	experiment	1	dispFeedback_noU	1000	1	92	DEV	dynamic	1	0			1	0.1127959531994527087	92	20	5	0	0	0	0	1	32	7	9	29	0		7	3.5	0.5
6.6.1	mac	0	2023-04-26	17:02:42	1	1	1	experiment	1	experiment_noU	1142	1	85	DEV	dynamic	1						85	20	5	0	0	0	0	1	32	7	9	29	0		7	3.5	0.5
6.6.1	mac	0	2023-04-26	17:02:42	1	1	1	experiment	1	dispFeedback_noU	1000	1	85	DEV	dynamic	1	0			1	0.5577792824613347911	85	20	5	0	0	0	0	1	32	8	9	29	0		8	4	0.5
6.6.1	mac	0	2023-04-26	17:02:42	1	1	1	experiment	1	experiment_noU	1989	1	87	DEV	dynamic	1						87	20	5	0	0	0	0	1	32	8	9	29	0		8	4	0.5
6.6.1	mac	0	2023-04-26	17:02:42	1	1	1	experiment	1	dispFeedback_noU	1000	1	87	DEV	dynamic	1	0			1	0.0226422729954687575	87	20	5	0	0	0	0	1	32	9	9	29	1		9	4.5	0.5
6.6.1	mac	0	2023-04-26	17:02:42	1	1	1	experiment	1	experiment_U	1364	1	57	DEV	dynamic	1						57	20	5	0	0	0	0	1	32	9	9	29	1		9	4.5	0.5
6.6.1	mac	0	2023-04-26	17:02:42	1	1	1	experiment	1	dispFeedback_U	1000	1	57	DEV	dynamic	1	0			1	0.0824411241529605238	57	20	5	0	0	1	0	1	32	10	9	29	1		10	5	0.5
6.6.1	mac	0	2023-04-26	17:02:42	1	1	1	experiment	1	experiment_U	460	1	51	DEV	dynamic	1						51	20	5	0	0	1	0	1	32	10	9	29	1		10	5	0.5
6.6.1	mac	0	2023-04-26	17:02:42	1	1	1	experiment	1	dispFeedback_U	1000	1	51	DEV	dynamic	1	0			1	0.4544827708635671981	51	20	5	0	0	2	0	1	32	11	9	29	1		11	5.5	0.5
6.6.1	mac	0	2023-04-26	17:02:42	1	1	1	experiment	1	experiment_U	1159	1	11	DEV	dynamic	1						11	20	5	0	0	2	0	1	32	11	9	29	1		11	5.5	0.5
6.6.1	mac	0	2023-04-26	17:02:42	1	1	1	experiment	1	dispFeedback_U	1000	1	11	DEV	dynamic	1	0			1	0.0978411829792524695	11	20	5	0	0	3	0	1	32	12	9	29	1		12	6	0.5
6.6.1	mac	0	2023-04-26	17:02:42	1	1	1	experiment	1	experiment_U	1127	1	28	DEV	dynamic	1						28	20	5	0	0	3	0	1	32	12	9	29	1		12	6	0.5
6.6.1	mac	0	2023-04-26	17:02:42	1	1	1	experiment	1	dispFeedback_U	1000	1	28	DEV	dynamic	1	0			1	0.5728621235054131011	28	20	5	0	0	4	0	1	32	13	9	29	1		13	6.5	0.5
6.6.1	mac	0	2023-04-26	17:02:42	1	1	1	experiment	1	experiment_U	2248	1	55	DEV	dynamic	1						55	20	5	0	0	4	0	1	32	13	9	29	1		13	6.5	0.5
6.6.1	mac	0	2023-04-26	17:02:42	1	1	1	experiment	1	dispFeedback_U	1000	1	55	DEV	dynamic	1	0			1	0.1700429399893719218	55	20	5	0	0	5	0	1	32	14	9	29	1		14	7	0.5
6.6.1	mac	0	2023-04-26	17:02:42	1	1	1	experiment	1	experiment_U	3339	1	56	DEV	dynamic	1						56	20	5	0	0	5	0	1	32	14	9	29	1		14	7	0.5
6.6.1	mac	0	2023-04-26	17:02:42	1	1	1	experiment	1	dispFeedback_U	1000	1	56	DEV	dynamic	1	0			1	0.2859919730774108104	56	20	5	0	0	6	0	1	32	15	9	29	1		15	7.5	0.5
6.6.1	mac	0	2023-04-26	17:02:42	1	1	1	experiment	1	experiment_U	3251	1	67	DEV	dynamic	1						67	20	5	0	0	6	0	1	32	15	9	29	1		15	7.5	0.5
6.6.1	mac	0	2023-04-26	17:02:42	1	1	1	experiment	1	dispFeedback_U	1000	1	67	DEV	dynamic	1	0			1	0.5541300579333049425	67	20	5	0	0	7	0	1	32	16	9	29	1		16	8	0.5
6.6.1	mac	0	2023-04-26	17:02:42	1	1	1	experiment	1	experiment_U	1358	1	7	DEV	dynamic	1						7	20	5	0	0	7	0	1	32	16	9	29	1		16	8	0.5
6.6.1	mac	0	2023-04-26	17:02:42	1	1	1	experiment	1	dispFeedback_U	1000	1	7	DEV	dynamic	1	0			1	0.1775421826582267437	7	20	5	0	0	8	0	1	32	17	9	29	1		17	8.5	0.5
6.6.1	mac	0	2023-04-26	17:02:42	1	1	1	experiment	1	experiment_U	646	1	50	DEV	dynamic	1						50	20	5	0	0	8	0	1	32	17	9	29	1		17	8.5	0.5
6.6.1	mac	0	2023-04-26	17:02:42	1	1	1	experiment	1	dispFeedback_U	1000	1	50	DEV	dynamic	1	0			1	0.8864115429777679189	50	20	5	0	0	9	0	1	32	18	9	29	1		18	9	0.5
6.6.1	mac	0	2023-04-26	17:02:42	1	1	1	experiment	1	experiment_U	970	1	69	DEV	dynamic	1						69	20	5	0	0	9	0	1	32	18	9	29	1		18	9	0.5
6.6.1	mac	0	2023-04-26	17:02:42	1	1	1	experiment	1	dispFeedback_U	1000	1	69	DEV	dynamic	1	0			1	0.759896883219456476	69	20	5	0	0	10	0	1	32	19	9	29	1		19	9.5	0.5
6.6.1	mac	0	2023-04-26	17:02:42	1	1	1	experiment	1	experiment_U	1233	1	22	DEV	dynamic	1						22	20	5	0	0	10	0	1	32	19	9	29	1		19	9.5	0.5
6.6.1	mac	0	2023-04-26	17:02:42	1	1	1	experiment	1	dispFeedback_U	1000	1	22	DEV	dynamic	1	0			1	0.3745413071882308653	22	20	5	0	0	11	0	1	32	20	9	29	1		20	10	0.5
6.6.1	mac	0	2023-04-26	17:02:42	1	1	1	experiment	1	experiment_U	1933	1	70	DEV	dynamic	1						70	20	5	0	0	11	0	1	32	20	9	29	1		20	10	0.5
6.6.1	mac	0	2023-04-26	17:02:42	1	1	1	experiment	1	dispFeedback_U	1000	1	70	DEV	dynamic	1	0			1	0.2475193515996260973	70	20	5	0	0	12	0	1	32	21	9	29	1		21	10.5	0.5
6.6.1	mac	0	2023-04-26	17:02:42	1	1	1	experiment	1	experiment_U	3278	1	69	DEV	dynamic	1						69	20	5	0	0	12	0	1	32	21	9	29	1		21	10.5	0.5
6.6.1	mac	0	2023-04-26	17:02:42	1	1	1	experiment	1	dispFeedback_U	1000	1	69	DEV	dynamic	1	0			1	0.9516678003016085796	69	20	5	0	0	13	0	1	32	22	9	29	1		22	11	0.5
6.6.1	mac	0	2023-04-26	17:02:42	1	1	1	experiment	1	experiment_U	0	1	65	DEV	dynamic	1						65	20	5	0	0	13	0	1	32	22	9	29	1		22	11	0.5
