build	computer.platform	computer.touch	date	time	subject	group	sessionid	blockcode	blocknum	trialcode	latency	randStart	startPos	scrfunc	rtvspos	randStart	circleproportion	mag	freq	ev	inc	rng	startPos	n_revolutions	totalPoints	totalEarnings	Earnings
6.6.1	mac	0	2023-01-19	12:02:12	1	1	1	experiment	1	experiment_noU	1133	1	61	DEV	POS	1	0.3300000000000000155						61	2220	0	0	
6.6.1	mac	0	2023-01-19	12:02:12	1	1	1	experiment	1	dispFeedback_noU	1000	1	61	DEV	POS	1	0.3300000000000000155	69	0.7818368201247067883	53.5642686356924642155	69	0.6807378394717206183	61	2220	69	7	7
6.6.1	mac	0	2023-01-19	12:02:12	1	1	1	experiment	1	experiment_noU	384	1	78	DEV	POS	1	0.3300000000000000155						78	4636	69	7	7
6.6.1	mac	0	2023-01-19	12:02:12	1	1	1	experiment	1	dispFeedback_noU	1000	1	78	DEV	POS	1	0.3300000000000000155	63	0.7559097917938122357	47.2525283454905391523	0	0.9234461819109148761	78	4636	69	7	0
6.6.1	mac	0	2023-01-19	12:02:12	1	1	1	experiment	1	experiment_U	3422	1	14	DEV	POS	1	0.3300000000000000155						14	10091	69	7	0
6.6.1	mac	0	2023-01-19	12:02:12	1	1	1	experiment	1	dispFeedback_U	1000	1	14	DEV	POS	1	0.3300000000000000155	64	0.7978215576028483413	50.6702880536514896903	64	0.5184792178958839148	14	10091	133	14	7
6.6.1	mac	0	2023-01-19	12:02:12	1	1	1	experiment	1	experiment_U	1700	1	48	DEV	POS	1	0.3300000000000000155						48	13818	133	14	7
6.6.1	mac	0	2023-01-19	12:02:12	1	1	1	experiment	1	dispFeedback_U	1000	1	48	DEV	POS	1	0.3300000000000000155	64	0.8036445612032346864	51.0401116902244993412	64	0.3239686021869929156	48	13818	197	21	7
6.6.1	mac	0	2023-01-19	12:02:12	1	1	1	experiment	1	experiment_U	1310	1	58	DEV	POS	1	0.3300000000000000155						58	17162	197	21	7
6.6.1	mac	0	2023-01-19	12:02:12	1	1	1	experiment	1	dispFeedback_U	1000	1	58	DEV	POS	1	0.3300000000000000155	64	0.7748388395419764096	49.2106371664289810042	64	0.5509594556761345796	58	17162	261	28	7
6.6.1	mac	0	2023-01-19	12:02:12	1	1	1	experiment	1	experiment_U	569	1	72	DEV	POS	1	0.3300000000000000155						72	19753	261	28	7
6.6.1	mac	0	2023-01-19	12:02:12	1	1	1	experiment	1	dispFeedback_U	1000	1	72	DEV	POS	1	0.3300000000000000155	70	0.7854842366292642541	54.5996403072025913161	70	0.0086224444696266309	72	19753	331	35	7
6.6.1	mac	0	2023-01-19	12:02:12	1	1	1	experiment	1	experiment_U	2529	1	32	DEV	POS	1	0.3300000000000000155						32	24313	331	35	7
6.6.1	mac	0	2023-01-19	12:02:12	1	1	1	experiment	1	dispFeedback_U	1000	1	32	DEV	POS	1	0.3300000000000000155	62	0.7959751589674372019	48.9610714750765083636	62	0.7822100566193018745	32	24313	393	42	7
6.6.1	mac	0	2023-01-19	12:02:12	1	1	1	experiment	1	experiment_U	3035	1	22	DEV	POS	1	0.3300000000000000155						22	29367	393	42	7
6.6.1	mac	0	2023-01-19	12:02:12	1	1	1	experiment	1	dispFeedback_U	1000	1	22	DEV	POS	1	0.3300000000000000155	61	0.7943949999611439328	48.0694796252168430328	61	0.3245180177792250098	22	29367	454	49	7
6.6.1	mac	0	2023-01-19	12:02:12	1	1	1	experiment	1	experiment_U	3006	1	20	DEV	POS	1	0.3300000000000000155						20	34423	454	49	7
6.6.1	mac	0	2023-01-19	12:02:12	1	1	1	experiment	1	dispFeedback_U	1000	1	20	DEV	POS	1	0.3300000000000000155	64	0.82885757312654329	52.6414103323578999039	64	0.3415711727788604546	20	34423	518	56	7
6.6.1	mac	0	2023-01-19	12:02:12	1	1	1	experiment	1	experiment_U	4516	1	90	DEV	POS	1	0.3300000000000000155						90	40981	518	56	7
6.6.1	mac	0	2023-01-19	12:02:12	1	1	1	experiment	1	dispFeedback_U	1000	1	90	DEV	POS	1	0.3300000000000000155	68	0.8261503425461506067	55.7740733135268982323	68	0.1654383547523614051	90	40981	586	63	7
6.6.1	mac	0	2023-01-19	12:02:12	1	1	1	experiment	1	experiment_noU	1084	1	58	DEV	POS	1	0.3300000000000000155						58	44116	586	63	7
6.6.1	mac	0	2023-01-19	12:02:12	1	1	1	experiment	1	dispFeedback_noU	1000	1	58	DEV	POS	1	0.3300000000000000155	62	0.83483381302006332	51.3512985029701383155	62	0.0119856358533691702	58	44116	648	70	7
6.6.1	mac	0	2023-01-19	12:02:12	1	1	1	experiment	1	experiment_noU	175	1	54	DEV	POS	1	0.3300000000000000155						54	46340	648	70	7
