build	computer.platform	computer.touch	date	time	subject	group	sessionid	blockcode	blocknum	trialcode	latency	randStart	startPos	scrfunc	rtvspos	randStart	circleproportion	mag	freq	ev	inc	rng	startPos	n_revolutions	totalPoints	totalEarnings	Earnings
6.6.1	mac	0	2023-01-18	15:12:10	1	1	1	experiment	1	experiment_noU	398	1	88	DEV	POS	1	0.3300000000000000155						88	1507	0	0	
6.6.1	mac	0	2023-01-18	15:12:10	1	1	1	experiment	1	dispFeedback_noU	1000	1	88	DEV	POS	1	0.3300000000000000155	70	0.6355082001861127594	44.1746855307251564682	0	0.9332787082375210153	88	1507	0	0	0
6.6.1	mac	0	2023-01-18	15:12:10	1	1	1	experiment	1	experiment_noU	285	1	84	DEV	POS	1	0.3300000000000000155						84	3827	0	0	0
6.6.1	mac	0	2023-01-18	15:12:10	1	1	1	experiment	1	dispFeedback_noU	1000	1	84	DEV	POS	1	0.3300000000000000155	69	0.7064423816775918796	48.3989350895257715024	69	0.4253177485487698029	84	3827	69	7	7
6.6.1	mac	0	2023-01-18	15:12:10	1	1	1	experiment	1	experiment_U	401	1	100	DEV	POS	1	0.3300000000000000155						100	6258	69	7	7
6.6.1	mac	0	2023-01-18	15:12:10	1	1	1	experiment	1	dispFeedback_U	1000	1	100	DEV	POS	1	0.3300000000000000155	64	0.5211758631985973222	33.1002977585988276132	0	0.8209026115529478584	100	6258	69	7	0
6.6.1	mac	0	2023-01-18	15:12:10	1	1	1	experiment	1	experiment_U	431	1	45	DEV	POS	1	0.3300000000000000155						45	8722	69	7	0
6.6.1	mac	0	2023-01-18	15:12:10	1	1	1	experiment	1	dispFeedback_U	1000	1	45	DEV	POS	1	0.3300000000000000155	67	0.2857778791933264229	19.007316324931430529	0	0.6566614947879364506	45	8722	69	7	0
6.6.1	mac	0	2023-01-18	15:12:10	1	1	1	experiment	1	experiment_U	300	1	62	DEV	POS	1	0.3300000000000000155						62	11057	69	7	0
6.6.1	mac	0	2023-01-18	15:12:10	1	1	1	experiment	1	dispFeedback_U	1000	1	62	DEV	POS	1	0.3300000000000000155	70	0.2228594161319895073	15.491137049543270976	70	0.0347681047941483801	62	11057	139	14	7
6.6.1	mac	0	2023-01-18	15:12:10	1	1	1	experiment	1	experiment_U	478	1	22	DEV	POS	1	0.3300000000000000155						22	13569	139	14	7
6.6.1	mac	0	2023-01-18	15:12:10	1	1	1	experiment	1	dispFeedback_U	1000	1	22	DEV	POS	1	0.3300000000000000155	69	0.3746239855530947294	25.6657902045839172445	0	0.7951430289063470269	22	13569	139	14	0
6.6.1	mac	0	2023-01-18	15:12:10	1	1	1	experiment	2	experiment_noU	824	1	50	IEV	POS	1	0.3300000000000000155						50	16448	139	14	0
6.6.1	mac	0	2023-01-18	15:12:10	1	1	1	experiment	2	dispFeedback_noU	1000	1	50	IEV	POS	1	0.3300000000000000155	235	0.9595077856062760313	225.1053926514982208573	235	0.5809712369416307753	50	16448	374	24	10
6.6.1	mac	0	2023-01-18	15:12:10	1	1	1	experiment	2	experiment_noU	1990	1	32	IEV	POS	1	0.3300000000000000155						32	20464	374	24	10
6.6.1	mac	0	2023-01-18	15:12:10	1	1	1	experiment	2	dispFeedback_noU	1000	1	32	IEV	POS	1	0.3300000000000000155	285	0.9225813858415233826	263.197447170101042957	285	0.7685415630155572053	32	20464	659	34	10
6.6.1	mac	0	2023-01-18	15:12:10	1	1	1	experiment	2	experiment_U	2997	1	82	IEV	POS	1	0.3300000000000000155						82	25487	659	34	10
6.6.1	mac	0	2023-01-18	15:12:10	1	1	1	experiment	2	dispFeedback_U	1000	1	82	IEV	POS	1	0.3300000000000000155	107	1.093882503997452238	116.9404469555583006013	107	0.4414774990737153071	82	25487	766	44	10
6.6.1	mac	0	2023-01-18	15:12:10	1	1	1	experiment	2	experiment_U	539	1	16	IEV	POS	1	0.3300000000000000155						16	28062	766	44	10
6.6.1	mac	0	2023-01-18	15:12:10	1	1	1	experiment	2	dispFeedback_U	1000	1	16	IEV	POS	1	0.3300000000000000155	72	1.1246482945513400775	81.0581420418632632163	72	0.8807761349903363568	16	28062	838	51	7
6.6.1	mac	0	2023-01-18	15:12:10	1	1	1	experiment	2	experiment_U	404	1	64	IEV	POS	1	0.3300000000000000155						64	30493	838	51	7
6.6.1	mac	0	2023-01-18	15:12:10	1	1	1	experiment	2	dispFeedback_U	1000	1	64	IEV	POS	1	0.3300000000000000155	297	0.9206113271871737558	273.1626841662809397349	297	0.1353853387142031905	64	30493	1135	61	10
6.6.1	mac	0	2023-01-18	15:12:10	1	1	1	experiment	2	experiment_U	2147	1	13	IEV	POS	1	0.3300000000000000155						13	34669	1135	61	10
6.6.1	mac	0	2023-01-18	15:12:10	1	1	1	experiment	2	dispFeedback_U	1000	1	13	IEV	POS	1	0.3300000000000000155	163	1.0268193124182496412	167.7872707634414268796	163	0.0592227743610792765	13	34669	1298	71	10
6.6.1	mac	0	2023-01-18	15:12:10	1	1	1	experiment	2	experiment_noU	796	1	69	IEV	POS	1	0.3300000000000000155						69	37484	1298	71	10
6.6.1	mac	0	2023-01-18	15:12:10	1	1	1	experiment	2	dispFeedback_noU	1000	1	69	IEV	POS	1	0.3300000000000000155	27	0.9689907949199734194	25.9088667513116917007	27	0.207444942604621152	69	37484	1325	75	4
6.6.1	mac	0	2023-01-18	15:12:10	1	1	1	endscreen	3	endscreen	5000	1	69	IEV	POS	1	0.3300000000000000155						69	37484	1325	75	
