build	computer.platform	computer.touch	date	time	subject	group	sessionid	blockcode	blocknum	trialcode	latency	randStart	startPos	scrfunc	rtvspos	randStart	circleproportion	mag	freq	ev	inc	rng	startPos	n_revolutions	totalPoints	totalEarnings	Earnings
6.6.1	mac	0	2023-01-17	11:28:11	1	1	1	instructions	1	instructions1	605	1	75	IEV	POS	1	0.3300000000000000155						75	0	0	0	
6.6.1	mac	0	2023-01-17	11:28:11	1	1	1	instructions	1	displayGoodJob	1054	1	75	IEV	POS	1	0.3300000000000000155						75	0	0	0	
6.6.1	mac	0	2023-01-17	11:28:11	1	1	1	instructions	1	instructions3	332	1	75	IEV	POS	1	0.3300000000000000155						75	0	0	0	
6.6.1	mac	0	2023-01-17	11:28:11	1	1	1	instructions	1	countdown	1000	1	75	IEV	POS	1	0.3300000000000000155						75	0	0	0	
6.6.1	mac	0	2023-01-17	11:28:11	1	1	1	experiment	2	experiment	587	1	35	IEV	POS	1	0.3300000000000000155						35	7995	0	0	
6.6.1	mac	0	2023-01-17	11:28:11	1	1	1	experiment	2	dispFeedback	1000	1	35	IEV	POS	1	0.3300000000000000155	121	1.0745311613017931585	130.4714472066999917388	121	0.1353752920719271668	35	7995	121	0	
6.6.1	mac	0	2023-01-17	11:28:11	1	1	1	experiment	2	experiment	386	1	62	IEV	POS	1	0.3300000000000000155						62	10410	121	0	
6.6.1	mac	0	2023-01-17	11:28:11	1	1	1	experiment	2	dispFeedback	1000	1	62	IEV	POS	1	0.3300000000000000155	270	0.9371512037661430261	252.7414727277829626928	270	0.305688157515993375	62	10410	391	0	
6.6.1	mac	0	2023-01-17	11:28:11	1	1	1	experiment	2	experiment	785	1	22	IEV	POS	1	0.3300000000000000155						22	13225	391	0	
6.6.1	mac	0	2023-01-17	11:28:11	1	1	1	experiment	2	dispFeedback	1000	1	22	IEV	POS	1	0.3300000000000000155	102	1.1073277891848372079	113.118276945231997388	102	0.2512114081185337633	22	13225	493	9	9
6.6.1	mac	0	2023-01-17	11:28:11	1	1	1	experiment	2	experiment	382	1	37	IEV	POS	1	0.3300000000000000155						37	15656	493	9	9
6.6.1	mac	0	2023-01-17	11:28:11	1	1	1	experiment	2	dispFeedback	1000	1	37	IEV	POS	1	0.3300000000000000155	121	1.083512881594768551	131.4382470194307757083	121	0.7955440673501100735	37	15656	614	9	9
6.6.1	mac	0	2023-01-17	11:28:11	1	1	1	experiment	2	experiment	542	1	26	IEV	POS	1	0.3300000000000000155						26	18233	614	9	9
6.6.1	mac	0	2023-01-17	11:28:11	1	1	1	experiment	2	dispFeedback	1000	1	26	IEV	POS	1	0.3300000000000000155	93	1.1096134037982059439	103.1502371800033586169	93	0.8042005556179677717	26	18233	707	18	9
6.6.1	mac	0	2023-01-17	11:28:11	1	1	1	experiment	3	experiment	293	1	75	IEV	POS	1	0.3300000000000000155						75	20568	707	18	9
6.6.1	mac	0	2023-01-17	11:28:11	1	1	1	experiment	3	dispFeedback	1000	1	75	IEV	POS	1	0.3300000000000000155	21	0.941188318008966518	19.5032338618378311423	21	0.1025322240550378822	75	20568	728	20	2
6.6.1	mac	0	2023-01-17	11:28:11	1	1	1	experiment	3	experiment	296	1	4	IEV	POS	1	0.3300000000000000155						4	22903	728	20	2
6.6.1	mac	0	2023-01-17	11:28:11	1	1	1	experiment	3	dispFeedback	1000	1	4	IEV	POS	1	0.3300000000000000155	53	1.1002191094741076149	58.5705536317737198715	53	0.6219381325929281834	4	22903	781	26	6
6.6.1	mac	0	2023-01-17	11:28:11	1	1	1	experiment	3	experiment	313	1	48	IEV	POS	1	0.3300000000000000155						48	25239	781	26	6
6.6.1	mac	0	2023-01-17	11:28:11	1	1	1	experiment	3	dispFeedback	1000	1	48	IEV	POS	1	0.3300000000000000155	161	1.0364473309350312746	167.0140420808895953542	161	0.243609423573037942	48	25239	942	26	6
6.6.1	mac	0	2023-01-17	11:28:11	1	1	1	experiment	3	experiment	348	1	21	IEV	POS	1	0.3300000000000000155						21	27607	942	26	6
6.6.1	mac	0	2023-01-17	11:28:11	1	1	1	experiment	3	dispFeedback	1000	1	21	IEV	POS	1	0.3300000000000000155	76	1.1240278736629825129	85.7962430993570848159	76	0.3301872539637115134	21	27607	1018	34	8
6.6.1	mac	0	2023-01-17	11:28:11	1	1	1	experiment	3	experiment	252	1	33	IEV	POS	1	0.3300000000000000155						33	29894	1018	34	8
6.6.1	mac	0	2023-01-17	11:28:11	1	1	1	experiment	3	dispFeedback	1000	1	33	IEV	POS	1	0.3300000000000000155	96	1.1063823368461147556	106.2548758688136558703	96	0.3595888017117019886	33	29894	1114	43	9
6.6.1	mac	0	2023-01-17	11:28:11	1	1	1	endscreen	4	endscreen	5000	1	33	IEV	POS	1	0.3300000000000000155						33	29894	1114	43	
