build	computer.platform	computer.touch	date	time	subject	group	sessionid	blockcode	blocknum	trialcode	latency	randStart	startPos	scrfunc	rtvspos	randStart	circleproportion	mag	freq	ev	inc	rng	startPos	n_revolutions	totalPoints	totalEarnings	Earnings
6.6.1	mac	0	2023-01-17	13:07:26	1	1	1	instructions	1	instructions1	536	1	75	IEV	POS	1	0.3300000000000000155						75	0	0	0	
6.6.1	mac	0	2023-01-17	13:07:26	1	1	1	instructions	1	displayGoodJob	841	1	75	IEV	POS	1	0.3300000000000000155						75	0	0	0	
6.6.1	mac	0	2023-01-17	13:07:26	1	1	1	instructions	1	instructions3	414	1	75	IEV	POS	1	0.3300000000000000155						75	0	0	0	
6.6.1	mac	0	2023-01-17	13:07:26	1	1	1	instructions	1	countdown	1000	1	75	IEV	POS	1	0.3300000000000000155						75	0	0	0	
6.6.1	mac	0	2023-01-17	13:07:26	1	1	1	experiment	2	experiment	919	1	72	DEV	POS	1	0.3300000000000000155						72	8531	0	0	
6.6.1	mac	0	2023-01-17	13:07:26	1	1	1	experiment	2	dispFeedback	1000	1	72	DEV	POS	1	0.3300000000000000155	67	0.6983687956078197256	46.4490696307511683472	67	0.3516460345945428001	72	8531	67	7	7
6.6.1	mac	0	2023-01-17	13:07:26	1	1	1	experiment	2	experiment	1360	1	60	DEV	POS	1	0.3300000000000000155						60	11922	67	7	7
6.6.1	mac	0	2023-01-17	13:07:26	1	1	1	experiment	2	dispFeedback	1000	1	60	DEV	POS	1	0.3300000000000000155	66	0.73686328997685413	48.2725060858275512032	66	0.4988661134845731038	60	11922	133	14	7
6.6.1	mac	0	2023-01-17	13:07:26	1	1	1	experiment	2	experiment	920	1	69	DEV	POS	1	0.3300000000000000155						69	14866	133	14	7
6.6.1	mac	0	2023-01-17	13:07:26	1	1	1	experiment	2	dispFeedback	1000	1	69	DEV	POS	1	0.3300000000000000155	65	0.7343876691941488843	47.3759385103673480444	65	0.4867671258949597957	69	14866	198	21	7
6.6.1	mac	0	2023-01-17	13:07:26	1	1	1	experiment	2	experiment	3009	1	25	DEV	POS	1	0.3300000000000000155						25	19905	198	21	7
6.6.1	mac	0	2023-01-17	13:07:26	1	1	1	experiment	2	dispFeedback	1000	1	25	DEV	POS	1	0.3300000000000000155	63	0.762263099954638701	47.6496787425566736829	63	0.6935635369023223085	25	19905	261	28	7
6.6.1	mac	0	2023-01-17	13:07:26	1	1	1	experiment	2	experiment	1302	1	76	DEV	POS	1	0.3300000000000000155						76	23232	261	28	7
6.6.1	mac	0	2023-01-17	13:07:26	1	1	1	experiment	2	dispFeedback	1000	1	76	DEV	POS	1	0.3300000000000000155	70	0.5741550509851673922	39.9099788416884067033	70	0.2654936202488591968	76	23232	331	35	7
6.6.1	mac	0	2023-01-17	13:07:26	1	1	1	experiment	2	experiment	1008	1	12	DEV	POS	1	0.3300000000000000155						12	26271	331	35	7
6.6.1	mac	0	2023-01-17	13:07:26	1	1	1	experiment	2	dispFeedback	1000	1	12	DEV	POS	1	0.3300000000000000155	65	0.3718825394367049064	23.9904413710613049204	0	0.4802207859419800329	12	26271	331	35	0
6.6.1	mac	0	2023-01-17	13:07:26	1	1	1	experiment	2	experiment	853	1	17	DEV	POS	1	0.3300000000000000155						17	29150	331	35	0
6.6.1	mac	0	2023-01-17	13:07:26	1	1	1	experiment	2	dispFeedback	1000	1	17	DEV	POS	1	0.3300000000000000155	69	0.3634165315309493272	24.897958526013681535	0	0.5017984927403271733	17	29150	331	35	0
6.6.1	mac	0	2023-01-17	13:07:26	1	1	1	experiment	2	experiment	2817	1	26	DEV	POS	1	0.3300000000000000155						26	33998	331	35	0
6.6.1	mac	0	2023-01-17	13:07:26	1	1	1	experiment	2	dispFeedback	1000	1	26	DEV	POS	1	0.3300000000000000155	66	0.7991423051328389038	52.3524544005699681293	0	0.9384826624157099895	26	33998	331	35	0
6.6.1	mac	0	2023-01-17	13:07:26	1	1	1	experiment	2	experiment	2430	1	34	DEV	POS	1	0.3300000000000000155						34	38461	331	35	0
6.6.1	mac	0	2023-01-17	13:07:26	1	1	1	experiment	2	dispFeedback	1000	1	34	DEV	POS	1	0.3300000000000000155	65	0.7957116406292696897	51.3319971722860657337	65	0.6968062184045106244	34	38461	396	42	7
6.6.1	mac	0	2023-01-17	13:07:26	1	1	1	experiment	2	experiment	2219	1	38	DEV	POS	1	0.3300000000000000155						38	42700	396	42	7
6.6.1	mac	0	2023-01-17	13:07:26	1	1	1	experiment	2	dispFeedback	1000	1	38	DEV	POS	1	0.3300000000000000155	70	0.7986138173976735644	55.5122880140691279394	70	0.2933336157103380026	38	42700	466	49	7
6.6.1	mac	0	2023-01-17	13:07:26	1	1	1	experiment	2	experiment	2800	1	28	DEV	POS	1	0.3300000000000000155						28	47532	466	49	7
6.6.1	mac	0	2023-01-17	13:07:26	1	1	1	experiment	2	dispFeedback	1000	1	28	DEV	POS	1	0.3300000000000000155	63	0.7774250724882324493	48.5974658260088290263	0	0.8805217570347063649	28	47532	466	49	0
6.6.1	mac	0	2023-01-17	13:07:26	1	1	1	experiment	2	experiment	2414	1	34	DEV	POS	1	0.3300000000000000155						34	51979	466	49	0
6.6.1	mac	0	2023-01-17	13:07:26	1	1	1	experiment	2	dispFeedback	1000	1	34	DEV	POS	1	0.3300000000000000155	63	0.7999355077143237569	50.0046112157597093528	63	0.3942979060565814931	34	51979	529	56	7
6.6.1	mac	0	2023-01-17	13:07:26	1	1	1	experiment	2	experiment	939	1	3	DEV	POS	1	0.3300000000000000155						3	54938	529	56	7
