build	computer.platform	computer.touch	date	time	subject	group	sessionid	blockcode	blocknum	trialcode	latency	randStart	startPos	scrfunc	rtvspos	randStart	circleproportion	mag	freq	ev	inc	rng	startPos	n_revolutions	totalPoints	totalEarnings	Earnings
6.6.1	mac	0	2023-01-13	15:36:23	1	1	1	instructions	1	instructions1	487	1	75	IEV	POS	1	0.3300000000000000155						75	0	0	0	
6.6.1	mac	0	2023-01-13	15:36:23	1	1	1	instructions	1	instructions2	172	1	75	IEV	POS	1	0.3300000000000000155						75	0	0	0	
6.6.1	mac	0	2023-01-13	15:36:23	1	1	1	instructions	1	instructions3	244	1	75	IEV	POS	1	0.3300000000000000155						75	0	0	0	
6.6.1	mac	0	2023-01-13	15:36:23	1	1	1	experiment	2	experiment	3758	1	96	IEV	POS	1	0.3300000000000000155						96	5824	0	0	
6.6.1	mac	0	2023-01-13	15:36:23	1	1	1	experiment	2	dispFeedback	1000	1	96	IEV	POS	1	0.3300000000000000155	281	0.9270775707321851078	260.2067399697739347175	281	0.6356736939949154674	96	5824	281	0	
6.6.1	mac	0	2023-01-13	15:36:23	1	1	1	experiment	2	experiment	809	1	2	IEV	POS	1	0.3300000000000000155						2	8655	281	0	
6.6.1	mac	0	2023-01-13	15:36:23	1	1	1	experiment	2	dispFeedback	1000	1	2	IEV	POS	1	0.3300000000000000155	55	1.1198553126021362214	61.1214280214852720974	55	0.1937637159586333979	2	8655	336	6	6
6.6.1	mac	0	2023-01-13	15:36:23	1	1	1	experiment	2	experiment	808	1	48	IEV	POS	1	0.3300000000000000155						48	11486	336	6	6
6.6.1	mac	0	2023-01-13	15:36:23	1	1	1	experiment	2	dispFeedback	1000	1	48	IEV	POS	1	0.3300000000000000155	213	0.975150962613753669	207.4197450287053641205	213	0.2293885790811359404	48	11486	549	6	6
6.6.1	mac	0	2023-01-13	15:36:23	1	1	1	experiment	2	experiment	1813	1	36	IEV	POS	1	0.3300000000000000155						36	15326	549	6	6
6.6.1	mac	0	2023-01-13	15:36:23	1	1	1	experiment	2	dispFeedback	1000	1	36	IEV	POS	1	0.3300000000000000155	295	0.9193440091444723405	271.1719197039617483824	295	0.4035255402334792518	36	15326	844	6	6
6.6.1	mac	0	2023-01-13	15:36:23	1	1	1	experiment	2	experiment	1946	1	32	IEV	POS	1	0.3300000000000000155						32	19293	844	6	6
6.6.1	mac	0	2023-01-13	15:36:23	1	1	1	experiment	2	dispFeedback	1000	1	32	IEV	POS	1	0.3300000000000000155	283	0.9287609155444402909	262.7502618872625248514	283	0.5633810142901216622	32	19293	1127	6	6
6.6.1	mac	0	2023-01-13	15:36:23	1	1	1	experiment	3	experiment	1753	1	16	IEV	POS	1	0.3300000000000000155						16	23084	1127	6	6
6.6.1	mac	0	2023-01-13	15:36:23	1	1	1	experiment	3	dispFeedback	1000	1	16	IEV	POS	1	0.3300000000000000155	142	1.0537136588552258321	149.5621519581730751725	142	0.6304161817837544701	16	23084	1269	6	6
6.6.1	mac	0	2023-01-13	15:36:23	1	1	1	experiment	3	experiment	1105	1	64	IEV	POS	1	0.3300000000000000155						64	26219	1269	6	6
6.6.1	mac	0	2023-01-13	15:36:23	1	1	1	experiment	3	dispFeedback	1000	1	64	IEV	POS	1	0.3300000000000000155	23	0.9768807242755838116	22.130800864243322934	23	0.968526781994972108	64	26219	1292	8	2
6.6.1	mac	0	2023-01-13	15:36:23	1	1	1	experiment	3	experiment	675	1	48	IEV	POS	1	0.3300000000000000155						48	28923	1292	8	2
6.6.1	mac	0	2023-01-13	15:36:23	1	1	1	experiment	3	dispFeedback	1000	1	48	IEV	POS	1	0.3300000000000000155	194	0.9925907306861495583	192.3320007541053939804	194	0.1283977337014856057	48	28923	1486	8	2
6.6.1	mac	0	2023-01-13	15:36:23	1	1	1	experiment	3	experiment	886	1	53	IEV	POS	1	0.3300000000000000155						53	31834	1486	8	2
6.6.1	mac	0	2023-01-13	15:36:23	1	1	1	experiment	3	dispFeedback	1000	1	53	IEV	POS	1	0.3300000000000000155	274	0.9301624579733371867	254.5196307037957694774	274	0.7647453627467027948	53	31834	1760	8	2
6.6.1	mac	0	2023-01-13	15:36:23	1	1	1	experiment	3	experiment	1393	1	43	IEV	POS	1	0.3300000000000000155						43	35258	1760	8	2
6.6.1	mac	0	2023-01-13	15:36:23	1	1	1	experiment	3	dispFeedback	1000	1	43	IEV	POS	1	0.3300000000000000155	273	0.9291815000118616164	253.8695385744381667337	273	0.1818543994291346444	43	35258	2033	8	2
6.6.1	mac	0	2023-01-13	15:36:23	1	1	1	endscreen	4	endscreen	3000	1	43	IEV	POS	1	0.3300000000000000155						43	35258	2033	8	
