build	computer.platform	computer.touch	date	time	subject	group	sessionid	blockcode	blocknum	trialcode	latency	randStart	startPos	scrfunc	rtvspos	randStart	circleproportion	mag	freq	ev	inc	rng	startPos	n_revolutions	totalPoints	totalEarnings	Earnings
6.6.1	mac	0	2023-01-19	12:10:31	1	1	1	experiment	1	experiment_noU	604	1	2	IEV	POS	1	0.3300000000000000155						2	1722	0	0	
6.6.1	mac	0	2023-01-19	12:10:31	1	1	1	experiment	1	dispFeedback_noU	1000	1	2	IEV	POS	1	0.3300000000000000155	54	1.1118890559937970597	59.6853778080947705575	54	0.6724373164289717542	2	1722	54	6	6
6.6.1	mac	0	2023-01-19	12:10:31	1	1	1	experiment	1	experiment_noU	467	1	11	IEV	POS	1	0.3300000000000000155						11	4234	54	6	6
6.6.1	mac	0	2023-01-19	12:10:31	1	1	1	experiment	1	dispFeedback_noU	1000	1	11	IEV	POS	1	0.3300000000000000155	67	1.1225931540352989124	75.1346699246754639034	67	0.3138985310946355023	11	4234	121	13	7
6.6.1	mac	0	2023-01-19	12:10:31	1	1	1	experiment	1	experiment_U	479	1	34	IEV	POS	1	0.3300000000000000155						34	6761	121	13	7
6.6.1	mac	0	2023-01-19	12:10:31	1	1	1	experiment	1	dispFeedback_U	1000	1	34	IEV	POS	1	0.3300000000000000155	115	1.0877455976113794556	124.9973452057646454705	115	0.151518844336159253	34	6761	236	23	10
6.6.1	mac	0	2023-01-19	12:10:31	1	1	1	experiment	1	experiment_U	1467	1	94	IEV	POS	1	0.3300000000000000155						94	10249	236	23	10
6.6.1	mac	0	2023-01-19	12:10:31	1	1	1	experiment	1	dispFeedback_U	1000	1	94	IEV	POS	1	0.3300000000000000155	66	1.1246941066655566921	74.1074504008606140815	66	0.6560507911853610263	94	10249	302	30	7
6.6.1	mac	0	2023-01-19	12:10:31	1	1	1	experiment	1	experiment_U	430	1	62	IEV	POS	1	0.3300000000000000155						62	12712	302	30	7
6.6.1	mac	0	2023-01-19	12:10:31	1	1	1	experiment	1	dispFeedback_U	1000	1	62	IEV	POS	1	0.3300000000000000155	279	0.9310028154040436155	260.0092283630436327257	279	0.176840978250103309	62	12712	581	40	10
6.6.1	mac	0	2023-01-19	12:10:31	1	1	1	experiment	1	experiment_U	476	1	93	IEV	POS	1	0.3300000000000000155						93	15208	581	40	10
6.6.1	mac	0	2023-01-19	12:10:31	1	1	1	experiment	1	dispFeedback_U	1000	1	93	IEV	POS	1	0.3300000000000000155	38	1.0711831220366780926	40.3709871263813369069	38	0.1089212612968220584	93	15208	619	45	5
6.6.1	mac	0	2023-01-19	12:10:31	1	1	1	experiment	1	experiment_U	440	1	50	IEV	POS	1	0.3300000000000000155						50	17671	619	45	5
6.6.1	mac	0	2023-01-19	12:10:31	1	1	1	experiment	1	dispFeedback_U	1000	1	50	IEV	POS	1	0.3300000000000000155	177	1.0096312782881997627	178.6914363653220334527	177	0.78768997844022004	50	17671	796	55	10
6.6.1	mac	0	2023-01-19	12:10:31	1	1	1	experiment	2	experiment_noU	1188	1	45	CEV	POS	1	0.3300000000000000155						45	20903	796	55	10
6.6.1	mac	0	2023-01-19	12:10:31	1	1	1	experiment	2	dispFeedback_noU	1000	1	45	CEV	POS	1	0.3300000000000000155	162	0.2302857142857143158	37.2302857142857206441	0	0.7800814720755632203	45	20903	796	55	0
6.6.1	mac	0	2023-01-19	12:10:31	1	1	1	experiment	2	experiment_noU	388	1	57	CEV	POS	1	0.3300000000000000155						57	23302	796	55	0
6.6.1	mac	0	2023-01-19	12:10:31	1	1	1	experiment	2	dispFeedback_noU	1000	1	57	CEV	POS	1	0.3300000000000000155	143	0.2588571428571428967	37.0000000000000071054	0	0.2733574999201477951	57	23302	796	55	0
6.6.1	mac	0	2023-01-19	12:10:31	1	1	1	experiment	2	experiment_U	355	1	52	CEV	POS	1	0.3300000000000000155						52	25669	796	55	0
6.6.1	mac	0	2023-01-19	12:10:31	1	1	1	experiment	2	dispFeedback_U	1000	1	52	CEV	POS	1	0.3300000000000000155	127	0.299285714285714266	37.8978571428571413549	127	0.1776471746102085414	52	25669	923	65	10
6.6.1	mac	0	2023-01-19	12:10:31	1	1	1	experiment	2	experiment_noU	403	1	38	CEV	POS	1	0.3300000000000000155						38	28101	923	65	10
6.6.1	mac	0	2023-01-19	12:10:31	1	1	1	experiment	2	dispFeedback_noU	1000	1	38	CEV	POS	1	0.3300000000000000155	96	0.3924285714285714599	37.784857142857148915	0	0.8161746672857959073	38	28101	923	65	0
6.6.1	mac	0	2023-01-19	12:10:31	1	1	1	experiment	2	experiment_noU	163	1	73	CEV	POS	1	0.3300000000000000155						73	30276	923	65	0
