build	computer.platform	computer.touch	date	time	subject	group	sessionid	blockcode	blocknum	trialcode	latency	randStart	startPos	scrfunc	rtvspos	randStart	mag	freq	ev	inc	rng	startPos	fogPos1	fogPos2	chooseUncertainty1	chooseUncertainty2	uncertaintyCount1	uncertaintyCount2	blockCount	ntrials	trialCount	uncertaintyStart1	uncertaintyStart2	uncertainty_block	rt_shifted	totalPoints	totalEarnings	Earnings
6.6.1	mac	0	2023-04-27	11:19:55	1	1	1	experiment	1	experiment_noU	421	1	87	dynamic	POS	1						87	10	5	0	0	0	0	1	300	0	8	29	0		0	0	
6.6.1	mac	0	2023-04-27	11:19:55	1	1	1	experiment	1	dispFeedback_noU	1000	1	87	dynamic	POS	1	30.1799999999999997158	1	30.1799999999999997158	30.1799999999999997158	0.4530718756031877903	87	10	5	0	0	0	0	1	300	1	8	29	0	1021	30.1799999999999997158	1	1
6.6.1	mac	0	2023-04-27	11:19:55	1	1	1	experiment	1	experiment_noU	389	1	24	dynamic	POS	1						24	10	5	0	0	0	0	1	300	1	8	29	0	1021	30.1799999999999997158	1	1
6.6.1	mac	0	2023-04-27	11:19:55	1	1	1	experiment	1	dispFeedback_noU	1000	1	24	dynamic	POS	1	61.7900000000000062528	1	61.7900000000000062528	61.7900000000000062528	0.1969919119023233467	24	10	5	0	0	0	0	1	300	2	8	29	0	2839	91.9699999999999988631	3.5	2.5
6.6.1	mac	0	2023-04-27	11:19:55	1	1	1	experiment	1	experiment_noU	3300	1	57	dynamic	POS	1						57	10	5	0	0	0	0	1	300	2	8	29	0	2839	91.9699999999999988631	3.5	2.5
6.6.1	mac	0	2023-04-27	11:19:55	1	1	1	experiment	1	dispFeedback_noU	1000	1	57	dynamic	POS	1	160.5	1	160.5	160.5	0.0142114264923640116	57	10	5	0	0	0	0	1	300	3	8	29	0	2400	252.4699999999999988631	8.5	5
6.6.1	mac	0	2023-04-27	11:19:55	1	1	1	experiment	1	experiment_noU	1262	1	97	dynamic	POS	1						97	10	5	0	0	0	0	1	300	3	8	29	0	2400	252.4699999999999988631	8.5	5
6.6.1	mac	0	2023-04-27	11:19:55	1	1	1	experiment	1	dispFeedback_noU	1000	1	97	dynamic	POS	1	164.5	1	164.5	164.5	0.8200226721400447616	97	10	5	0	0	0	0	1	300	4	8	29	0	2362	416.9700000000000272848	13.5	5
6.6.1	mac	0	2023-04-27	11:19:55	1	1	1	experiment	1	experiment_noU	890	1	39	dynamic	POS	1						39	10	5	0	0	0	0	1	300	4	8	29	0	2362	416.9700000000000272848	13.5	5
6.6.1	mac	0	2023-04-27	11:19:55	1	1	1	experiment	1	dispFeedback_noU	1000	1	39	dynamic	POS	1	17.75	1	17.75	17.75	0.5677209316212034063	39	10	5	0	0	0	0	1	300	5	8	29	0	4090	434.7200000000000272848	14	0.5
6.6.1	mac	0	2023-04-27	11:19:55	1	1	1	experiment	1	experiment_noU	2597	1	39	dynamic	POS	1						39	10	5	0	0	0	0	1	300	5	8	29	0	4090	434.7200000000000272848	14	0.5
6.6.1	mac	0	2023-04-27	11:19:55	1	1	1	experiment	1	dispFeedback_noU	1000	1	39	dynamic	POS	1	22.309999999999998721	1	22.309999999999998721	22.309999999999998721	0.3173240372718600377	39	10	5	0	0	0	0	1	300	6	8	29	0	797	457.0300000000000295586	14.5	0.5
6.6.1	mac	0	2023-04-27	11:19:55	1	1	1	experiment	1	experiment_noU	1196	1	99	dynamic	POS	1						99	10	5	0	0	0	0	1	300	6	8	29	0	797	457.0300000000000295586	14.5	0.5
6.6.1	mac	0	2023-04-27	11:19:55	1	1	1	experiment	1	dispFeedback_noU	1000	1	99	dynamic	POS	1	136.2299999999999897682	1	136.2299999999999897682	136.2299999999999897682	0.8256482805185132445	99	10	5	0	0	0	0	1	300	7	8	29	0	2396	593.2599999999999909051	19.5	5
6.6.1	mac	0	2023-04-27	11:19:55	1	1	1	experiment	1	experiment_noU	1979	1	84	dynamic	POS	1						84	10	5	0	0	0	0	1	300	7	8	29	0	2396	593.2599999999999909051	19.5	5
6.6.1	mac	0	2023-04-27	11:19:55	1	1	1	experiment	1	dispFeedback_noU	1000	1	84	dynamic	POS	1	139.5	1	139.5	139.5	0.3346333155256308034	84	10	5	0	0	0	0	1	300	8	8	29	1	2429	732.7599999999999909051	24.5	5
6.6.1	mac	0	2023-04-27	11:19:55	1	1	1	experiment	1	experiment_U	3065	1	62	dynamic	POS	1						62	10	5	0	0	0	0	1	300	8	8	29	1	2429	732.7599999999999909051	24.5	5
6.6.1	mac	0	2023-04-27	11:19:55	1	1	1	experiment	1	dispFeedback_U	1000	1	62	dynamic	POS	1	133.9000000000000056843	1	133.9000000000000056843	133.9000000000000056843	0.3776703962072893717	62	10	5	0	0	1	0	1	300	9	8	29	1	2415	866.6599999999999681677	29	4.5
6.6.1	mac	0	2023-04-27	11:19:55	1	1	1	experiment	1	experiment_U	398	1	38	dynamic	POS	1						38	10	5	0	0	1	0	1	300	9	8	29	1	2415	866.6599999999999681677	29	4.5
6.6.1	mac	0	2023-04-27	11:19:55	1	1	1	experiment	1	dispFeedback_U	1000	1	38	dynamic	POS	1	14.8700000000000009948	1	14.8700000000000009948	14.8700000000000009948	0.855114288827198199	38	10	5	1	0	2	0	1	300	10	8	29	1	3548	881.5299999999999727152	29.5	0.5
6.6.1	mac	0	2023-04-27	11:19:55	1	1	1	experiment	1	experiment_U	2203	1	80	dynamic	POS	1						80	10	5	1	0	2	0	1	300	10	8	29	1	3548	881.5299999999999727152	29.5	0.5
6.6.1	mac	0	2023-04-27	11:19:55	1	1	1	experiment	1	dispFeedback_U	1000	1	80	dynamic	POS	1	100.1800000000000068212	1	100.1800000000000068212	100.1800000000000068212	0.7462452616883081813	80	10	5	1	0	3	0	1	300	11	8	29	1	2453	981.7100000000000363798	33	3.5
6.6.1	mac	0	2023-04-27	11:19:55	1	1	1	experiment	1	experiment_U	4129	1	43	dynamic	POS	1						43	10	5	1	0	3	0	1	300	11	8	29	1	2453	981.7100000000000363798	33	3.5
6.6.1	mac	0	2023-04-27	11:19:55	1	1	1	experiment	1	dispFeedback_U	1000	1	43	dynamic	POS	1	77.75	1	77.75	77.75	0.5062868712717404351	43	10	5	1	0	4	0	1	300	12	8	29	1	2529	1059.4600000000000363798	36	3
6.6.1	mac	0	2023-04-27	11:19:55	1	1	1	experiment	1	experiment_U	4378	1	37	dynamic	POS	1						37	10	5	1	0	4	0	1	300	12	8	29	1	2529	1059.4600000000000363798	36	3
6.6.1	mac	0	2023-04-27	11:19:55	1	1	1	experiment	1	dispFeedback_U	1000	1	37	dynamic	POS	1	69.3100000000000022737	1	69.3100000000000022737	69.3100000000000022737	0.4792044522425170094	37	10	5	1	0	5	0	1	300	13	8	29	1	2478	1128.7699999999999818101	38.5	2.5
6.6.1	mac	0	2023-04-27	11:19:55	1	1	1	experiment	1	experiment_U	3113	1	63	dynamic	POS	1						63	10	5	1	0	5	0	1	300	13	8	29	1	2478	1128.7699999999999818101	38.5	2.5
6.6.1	mac	0	2023-04-27	11:19:55	1	1	1	experiment	1	dispFeedback_U	1000	1	63	dynamic	POS	1	50.9900000000000019895	1	50.9900000000000019895	50.9900000000000019895	0.082172949584706903	63	10	5	1	0	6	0	1	300	14	8	29	1	2513	1179.7599999999999909051	40.5	2
6.6.1	mac	0	2023-04-27	11:19:55	1	1	1	experiment	1	experiment_U	4027	1	43	dynamic	POS	1						43	10	5	1	0	6	0	1	300	14	8	29	1	2513	1179.7599999999999909051	40.5	2
6.6.1	mac	0	2023-04-27	11:19:55	1	1	1	experiment	1	dispFeedback_U	1000	1	43	dynamic	POS	1	97.2800000000000011369	1	97.2800000000000011369	97.2800000000000011369	0.7817807408938605152	43	10	5	1	0	7	0	1	300	15	8	29	1	2427	1277.0399999999999636202	44	3.5
6.6.1	mac	0	2023-04-27	11:19:55	1	1	1	experiment	1	experiment_U	487	1	11	dynamic	POS	1						11	10	5	1	0	7	0	1	300	15	8	29	1	2427	1277.0399999999999636202	44	3.5
6.6.1	mac	0	2023-04-27	11:19:55	1	1	1	experiment	1	dispFeedback_U	1000	1	11	dynamic	POS	1	118.980000000000003979	1	118.980000000000003979	118.980000000000003979	0.9479228558363212986	11	10	5	1	0	8	0	1	300	16	8	29	1	2287	1396.0199999999999818101	48	4
6.6.1	mac	0	2023-04-27	11:19:55	1	1	1	experiment	1	experiment_U	2897	1	66	dynamic	POS	1						66	10	5	1	0	8	0	1	300	16	8	29	1	2287	1396.0199999999999818101	48	4
6.6.1	mac	0	2023-04-27	11:19:55	1	1	1	experiment	1	dispFeedback_U	1000	1	66	dynamic	POS	1	77.2199999999999988631	1	77.2199999999999988631	77.2199999999999988631	0.9435179345178227317	66	10	5	1	0	9	0	1	300	17	8	29	1	2447	1473.2400000000000090949	51	3
6.6.1	mac	0	2023-04-27	11:19:55	1	1	1	experiment	1	experiment_U	6500	1	38	dynamic	POS	1						38	10	5	1	0	9	0	1	300	17	8	29	1	2447	1473.2400000000000090949	51	3
6.6.1	mac	0	2023-04-27	11:19:55	1	1	1	experiment	1	dispFeedback_U	1000	1	38	dynamic	POS	1	13.0500000000000007105	1	13.0500000000000007105	13.0500000000000007105	0.78019435419239902	38	10	5	1	0	10	0	1	300	18	8	29	1	4650	1486.2899999999999636202	51	0
6.6.1	mac	0	2023-04-27	11:19:55	1	1	1	experiment	1	experiment_U	6500	1	44	dynamic	POS	1						44	10	5	1	0	10	0	1	300	18	8	29	1	4650	1486.2899999999999636202	51	0
6.6.1	mac	0	2023-04-27	11:19:55	1	1	1	experiment	1	dispFeedback_U	1000	1	44	dynamic	POS	1	17.9699999999999988631	1	17.9699999999999988631	17.9699999999999988631	0.6939050123779813006	44	10	5	1	0	11	0	1	300	19	8	29	1	4950	1504.2599999999999909051	51	0
6.6.1	mac	0	2023-04-27	11:19:55	1	1	1	experiment	1	experiment_U	6500	1	47	dynamic	POS	1						47	10	5	1	0	11	0	1	300	19	8	29	1	4950	1504.2599999999999909051	51	0
6.6.1	mac	0	2023-04-27	11:19:55	1	1	1	experiment	1	dispFeedback_U	1000	1	47	dynamic	POS	1	28.5799999999999982947	1	28.5799999999999982947	28.5799999999999982947	0.4392738496976145157	47	10	5	2	0	12	0	1	300	20	8	29	1	100	1532.8399999999999181455	51	0
6.6.1	mac	0	2023-04-27	11:19:55	1	1	1	experiment	1	experiment_U	6500	1	100	dynamic	POS	1						100	10	5	2	0	12	0	1	300	20	8	29	1	100	1532.8399999999999181455	51	0
6.6.1	mac	0	2023-04-27	11:19:55	1	1	1	experiment	1	dispFeedback_U	1000	1	100	dynamic	POS	1	36.5099999999999980105	1	36.5099999999999980105	36.5099999999999980105	0.3523059332166579294	100	10	5	2	0	13	0	1	300	21	8	29	1	2750	1569.3499999999999090505	51	0
6.6.1	mac	0	2023-04-27	11:19:55	1	1	1	experiment	1	experiment_U	6500	1	8	dynamic	POS	1						8	10	5	2	0	13	0	1	300	21	8	29	1	2750	1569.3499999999999090505	51	0
6.6.1	mac	0	2023-04-27	11:19:55	1	1	1	experiment	1	dispFeedback_U	1000	1	8	dynamic	POS	1	32.4200000000000017053	1	32.4200000000000017053	32.4200000000000017053	0.130980503077381405	8	10	5	2	0	14	0	1	300	22	8	29	1	3150	1601.7699999999999818101	51	0
6.6.1	mac	0	2023-04-27	11:19:55	1	1	1	experiment	1	experiment_U	2122	1	82	dynamic	POS	1						82	10	5	2	0	14	0	1	300	22	8	29	1	3150	1601.7699999999999818101	51	0
6.6.1	mac	0	2023-04-27	11:19:55	1	1	1	experiment	1	dispFeedback_U	1000	1	82	dynamic	POS	1	69.0499999999999971578	1	69.0499999999999971578	69.0499999999999971578	0.8454640362983253388	82	10	5	2	0	15	0	1	300	23	8	29	1	2472	1670.8199999999999363354	53.5	2.5
6.6.1	mac	0	2023-04-27	11:19:55	1	1	1	experiment	1	experiment_U	1887	1	86	dynamic	POS	1						86	10	5	2	0	15	0	1	300	23	8	29	1	2472	1670.8199999999999363354	53.5	2.5
6.6.1	mac	0	2023-04-27	11:19:55	1	1	1	experiment	1	dispFeedback_U	1000	1	86	dynamic	POS	1	64.6299999999999954525	1	64.6299999999999954525	64.6299999999999954525	0.3760599867385020501	86	10	5	2	0	16	0	1	300	24	8	29	1	2437	1735.4499999999998181011	56	2.5
6.6.1	mac	0	2023-04-27	11:19:55	1	1	1	experiment	1	experiment_U	1538	1	95	dynamic	POS	1						95	10	5	2	0	16	0	1	300	24	8	29	1	2437	1735.4499999999998181011	56	2.5
6.6.1	mac	0	2023-04-27	11:19:55	1	1	1	experiment	1	dispFeedback_U	1000	1	95	dynamic	POS	1	48.8900000000000005684	1	48.8900000000000005684	48.8900000000000005684	0.9067886476187940747	95	10	5	2	0	17	0	1	300	25	8	29	1	2538	1784.3399999999999181455	58	2
6.6.1	mac	0	2023-04-27	11:19:55	1	1	1	experiment	1	experiment_U	4356	1	38	dynamic	POS	1						38	10	5	2	0	17	0	1	300	25	8	29	1	2538	1784.3399999999999181455	58	2
6.6.1	mac	0	2023-04-27	11:19:55	1	1	1	experiment	1	dispFeedback_U	1000	1	38	dynamic	POS	1	49.130000000000002558	1	49.130000000000002558	49.130000000000002558	0.2280928656058602289	38	10	5	2	0	18	0	1	300	26	8	29	0	2506	1833.4700000000000272848	60	2
6.6.1	mac	0	2023-04-27	11:19:55	1	1	1	experiment	1	experiment_noU	1811	1	57	dynamic	POS	1						57	10	5	2	0	18	0	1	300	26	8	29	0	2506	1833.4700000000000272848	60	2
6.6.1	mac	0	2023-04-27	11:19:55	1	1	1	experiment	1	dispFeedback_noU	1000	1	57	dynamic	POS	1	54.4799999999999968736	1	54.4799999999999968736	54.4799999999999968736	0.8320435024406862556	57	10	5	2	0	18	0	1	300	27	8	29	0	911	1887.9500000000000454747	62	2
6.6.1	mac	0	2023-04-27	11:19:55	1	1	1	experiment	1	experiment_noU	553	1	35	dynamic	POS	1						35	10	5	2	0	18	0	1	300	27	8	29	0	911	1887.9500000000000454747	62	2
6.6.1	mac	0	2023-04-27	11:19:55	1	1	1	experiment	1	dispFeedback_noU	1000	1	35	dynamic	POS	1	41.3500000000000014211	1	41.3500000000000014211	41.3500000000000014211	0.2236448126434452954	35	10	5	2	0	18	0	1	300	28	8	29	0	3553	1929.2999999999999545253	63.5	1.5
6.6.1	mac	0	2023-04-27	11:19:55	1	1	1	experiment	1	experiment_noU	446	1	20	dynamic	POS	1						20	10	5	2	0	18	0	1	300	28	8	29	0	3553	1929.2999999999999545253	63.5	1.5
6.6.1	mac	0	2023-04-27	11:19:55	1	1	1	experiment	1	dispFeedback_noU	1000	1	20	dynamic	POS	1	42.5600000000000022737	1	42.5600000000000022737	42.5600000000000022737	0.631915009494851132	20	10	5	2	0	18	0	1	300	29	8	29	2	2696	1971.8599999999998999556	65	1.5
6.6.1	mac	0	2023-04-27	11:19:55	1	1	1	experiment	1	experiment_U	2729	1	65	dynamic	POS	1						65	10	5	2	0	18	0	1	300	29	8	29	2	2696	1971.8599999999998999556	65	1.5
6.6.1	mac	0	2023-04-27	11:19:55	1	1	1	experiment	1	dispFeedback_U	1000	1	65	dynamic	POS	1	41.6799999999999997158	1	41.6799999999999997158	41.6799999999999997158	0.0404739945755512448	65	10	5	2	1	18	1	1	300	30	8	29	2	2229	2013.5399999999999636202	66.5	1.5
6.6.1	mac	0	2023-04-27	11:19:55	1	1	1	experiment	1	experiment_U	827	1	7	dynamic	POS	1						7	10	5	2	1	18	1	1	300	30	8	29	2	2229	2013.5399999999999636202	66.5	1.5
6.6.1	mac	0	2023-04-27	11:19:55	1	1	1	experiment	1	dispFeedback_U	1000	1	7	dynamic	POS	1	36.0499999999999971578	1	36.0499999999999971578	36.0499999999999971578	0.2840699635641812382	7	10	5	2	2	18	2	1	300	31	8	29	2	2427	2049.5900000000001455192	68	1.5
6.6.1	mac	0	2023-04-27	11:19:55	1	1	1	experiment	1	experiment_U	1448	1	29	dynamic	POS	1						29	10	5	2	2	18	2	1	300	31	8	29	2	2427	2049.5900000000001455192	68	1.5
6.6.1	mac	0	2023-04-27	11:19:55	1	1	1	experiment	1	dispFeedback_U	1000	1	29	dynamic	POS	1	35.0799999999999982947	1	35.0799999999999982947	35.0799999999999982947	0.0826281451346883855	29	10	5	2	3	18	3	1	300	32	8	29	2	4148	2084.6700000000000727596	69.5	1.5
6.6.1	mac	0	2023-04-27	11:19:55	1	1	1	experiment	1	experiment_U	3837	1	47	dynamic	POS	1						47	10	5	2	3	18	3	1	300	32	8	29	2	4148	2084.6700000000000727596	69.5	1.5
6.6.1	mac	0	2023-04-27	11:19:55	1	1	1	experiment	1	dispFeedback_U	1000	1	47	dynamic	POS	1	33.8200000000000002842	1	33.8200000000000002842	33.8200000000000002842	0.7295679183978512894	47	10	5	2	4	18	4	1	300	33	8	29	0	2437	2118.4900000000002364686	71	1.5
6.6.1	mac	0	2023-04-27	11:19:55	1	1	1	experiment	1	experiment_noU	817	1	86	dynamic	POS	1						86	10	5	2	4	18	4	1	300	33	8	29	0	2437	2118.4900000000002364686	71	1.5
6.6.1	mac	0	2023-04-27	11:19:55	1	1	1	experiment	1	dispFeedback_noU	1000	1	86	dynamic	POS	1	30.369999999999997442	1	30.369999999999997442	30.369999999999997442	0.4844642322241478061	86	10	5	2	4	18	4	1	300	34	8	29	0	1367	2148.8600000000001273293	72	1
6.6.1	mac	0	2023-04-27	11:19:55	1	1	1	experiment	1	experiment_noU	943	1	65	dynamic	POS	1						65	10	5	2	4	18	4	1	300	34	8	29	0	1367	2148.8600000000001273293	72	1
6.6.1	mac	0	2023-04-27	11:19:55	1	1	1	experiment	1	dispFeedback_noU	1000	1	65	dynamic	POS	1	130.1100000000000136424	1	130.1100000000000136424	130.1100000000000136424	0.4269348665668943332	65	10	5	2	4	18	4	1	300	35	8	29	0	443	2278.9700000000002546585	76.5	4.5
6.6.1	mac	0	2023-04-27	11:19:55	1	1	1	experiment	1	experiment_noU	6500	1	31	dynamic	POS	1						31	10	5	2	4	18	4	1	300	35	8	29	0	443	2278.9700000000002546585	76.5	4.5
6.6.1	mac	0	2023-04-27	11:19:55	1	1	1	experiment	1	dispFeedback_noU	1000	1	31	dynamic	POS	1	38.25	1	38.25	38.25	0.7543587367409744227	31	10	5	2	4	18	4	1	300	36	8	29	0	4300	2317.2200000000002546585	76.5	4.5
6.6.1	mac	0	2023-04-27	11:19:55	1	1	1	experiment	1	experiment_noU	4161	1	64	dynamic	POS	1						64	10	5	2	4	18	4	1	300	36	8	29	0	4300	2317.2200000000002546585	76.5	4.5
6.6.1	mac	0	2023-04-27	11:19:55	1	1	1	experiment	1	dispFeedback_noU	1000	1	64	dynamic	POS	1	20.690000000000001279	1	20.690000000000001279	20.690000000000001279	0.9369235548509572409	64	10	5	2	4	18	4	1	300	37	8	29	0	3611	2337.9100000000003092282	77	0.5
6.6.1	mac	0	2023-04-27	11:19:55	1	1	1	experiment	1	experiment_noU	496	1	12	dynamic	POS	1						12	10	5	2	4	18	4	1	300	37	8	29	0	3611	2337.9100000000003092282	77	0.5
6.6.1	mac	0	2023-04-27	11:19:55	1	1	1	experiment	1	dispFeedback_noU	1000	1	12	dynamic	POS	1	18.0100000000000015632	1	18.0100000000000015632	18.0100000000000015632	0.3024794718489235978	12	10	5	2	4	18	4	1	300	38	8	29	0	2346	2355.9200000000005275069	77.5	0.5
6.6.1	mac	0	2023-04-27	11:19:55	1	1	1	experiment	1	experiment_noU	939	1	74	dynamic	POS	1						74	10	5	2	4	18	4	1	300	38	8	29	0	2346	2355.9200000000005275069	77.5	0.5
6.6.1	mac	0	2023-04-27	11:19:55	1	1	1	experiment	1	dispFeedback_noU	1000	1	74	dynamic	POS	1	73.2199999999999988631	1	73.2199999999999988631	73.2199999999999988631	0.0406210520399317709	74	10	5	2	4	18	4	1	300	39	8	29	0	889	2429.1400000000003274181	80	2.5
6.6.1	mac	0	2023-04-27	11:19:55	1	1	1	experiment	1	experiment_noU	1108	1	87	dynamic	POS	1						87	10	5	2	4	18	4	1	300	39	8	29	0	889	2429.1400000000003274181	80	2.5
6.6.1	mac	0	2023-04-27	11:19:55	1	1	1	experiment	1	dispFeedback_noU	1000	1	87	dynamic	POS	1	22.5799999999999982947	1	22.5799999999999982947	22.5799999999999982947	0.0317293491754050694	87	10	5	2	4	18	4	1	300	40	8	29	0	1708	2451.7200000000002546585	80.5	0.5
6.6.1	mac	0	2023-04-27	11:19:55	1	1	1	experiment	1	experiment_noU	645	1	59	dynamic	POS	1						59	10	5	2	4	18	4	1	300	40	8	29	0	1708	2451.7200000000002546585	80.5	0.5
6.6.1	mac	0	2023-04-27	11:19:55	1	1	1	experiment	1	dispFeedback_noU	1000	1	59	dynamic	POS	1	116.519999999999996021	1	116.519999999999996021	116.519999999999996021	0.7900014467979784571	59	10	5	2	4	18	4	1	300	41	8	29	0	4845	2568.2400000000002364686	84.5	4
6.6.1	mac	0	2023-04-27	11:19:55	1	1	1	experiment	1	experiment_noU	969	1	56	dynamic	POS	1						56	10	5	2	4	18	4	1	300	41	8	29	0	4845	2568.2400000000002364686	84.5	4
6.6.1	mac	0	2023-04-27	11:19:55	1	1	1	experiment	1	dispFeedback_noU	1000	1	56	dynamic	POS	1	145.6500000000000056843	1	145.6500000000000056843	145.6500000000000056843	0.2975562005996602033	56	10	5	2	4	18	4	1	300	42	8	29	0	19	2713.8900000000003274181	89.5	5
6.6.1	mac	0	2023-04-27	11:19:55	1	1	1	experiment	1	experiment_noU	368	1	69	dynamic	POS	1						69	10	5	2	4	18	4	1	300	42	8	29	0	19	2713.8900000000003274181	89.5	5
6.6.1	mac	0	2023-04-27	11:19:55	1	1	1	experiment	1	dispFeedback_noU	1000	1	69	dynamic	POS	1	158.25	1	158.25	158.25	0.5015531569955761215	69	10	5	2	4	18	4	1	300	43	8	29	0	68	2872.1400000000003274181	94.5	5
6.6.1	mac	0	2023-04-27	11:19:55	1	1	1	experiment	1	experiment_noU	3247	1	12	dynamic	POS	1						12	10	5	2	4	18	4	1	300	43	8	29	0	68	2872.1400000000003274181	94.5	5
6.6.1	mac	0	2023-04-27	11:19:55	1	1	1	experiment	1	dispFeedback_noU	1000	1	12	dynamic	POS	1	163.7100000000000079581	1	163.7100000000000079581	163.7100000000000079581	0.5691439061353783524	12	10	5	2	4	18	4	1	300	44	8	29	0	97	3035.8500000000003637979	99.5	5
6.6.1	mac	0	2023-04-27	11:19:55	1	1	1	experiment	1	experiment_noU	1211	1	53	dynamic	POS	1						53	10	5	2	4	18	4	1	300	44	8	29	0	97	3035.8500000000003637979	99.5	5
6.6.1	mac	0	2023-04-27	11:19:55	1	1	1	experiment	1	dispFeedback_noU	1000	1	53	dynamic	POS	1	158.8499999999999943157	1	158.8499999999999943157	158.8499999999999943157	0.6802980319318123748	53	10	5	2	4	18	4	1	300	45	8	29	0	111	3194.7000000000002728484	104.5	5
6.6.1	mac	0	2023-04-27	11:19:55	1	1	1	experiment	1	experiment_noU	3097	1	15	dynamic	POS	1						15	10	5	2	4	18	4	1	300	45	8	29	0	111	3194.7000000000002728484	104.5	5
6.6.1	mac	0	2023-04-27	11:19:55	1	1	1	experiment	1	dispFeedback_noU	1000	1	15	dynamic	POS	1	149.7100000000000079581	1	149.7100000000000079581	149.7100000000000079581	0.4754900793720712171	15	10	5	2	4	18	4	1	300	46	8	29	0	97	3344.4100000000003092282	109.5	5
6.6.1	mac	0	2023-04-27	11:19:55	1	1	1	experiment	1	experiment_noU	6500	1	28	dynamic	POS	1						28	10	5	2	4	18	4	1	300	46	8	29	0	97	3344.4100000000003092282	109.5	5
6.6.1	mac	0	2023-04-27	11:19:55	1	1	1	experiment	1	dispFeedback_noU	1000	1	28	dynamic	POS	1	31.1799999999999997158	1	31.1799999999999997158	31.1799999999999997158	0.7332880675637368784	28	10	5	2	4	18	4	1	300	47	8	29	0	4150	3375.5900000000001455192	109.5	5
6.6.1	mac	0	2023-04-27	11:19:55	1	1	1	experiment	1	experiment_noU	6500	1	46	dynamic	POS	1						46	10	5	2	4	18	4	1	300	47	8	29	0	4150	3375.5900000000001455192	109.5	5
6.6.1	mac	0	2023-04-27	11:19:55	1	1	1	experiment	1	dispFeedback_noU	1000	1	46	dynamic	POS	1	162.3400000000000034106	1	162.3400000000000034106	162.3400000000000034106	0.7295887958560113296	46	10	5	2	4	18	4	1	300	48	8	29	0	50	3537.9300000000002910383	109.5	5
6.6.1	mac	0	2023-04-27	11:19:55	1	1	1	experiment	1	experiment_noU	4206	1	88	dynamic	POS	1						88	10	5	2	4	18	4	1	300	48	8	29	0	50	3537.9300000000002910383	109.5	5
6.6.1	mac	0	2023-04-27	11:19:55	1	1	1	experiment	1	dispFeedback_noU	1000	1	88	dynamic	POS	1	133.25	1	133.25	133.25	0.1362017884701960113	88	10	5	2	4	18	4	1	300	49	8	29	0	4856	3671.1800000000002910383	114	4.5
6.6.1	mac	0	2023-04-27	11:19:55	1	1	1	experiment	1	experiment_noU	5156	1	73	dynamic	POS	1						73	10	5	2	4	18	4	1	300	49	8	29	0	4856	3671.1800000000002910383	114	4.5
6.6.1	mac	0	2023-04-27	11:19:55	1	1	1	experiment	1	dispFeedback_noU	1000	1	73	dynamic	POS	1	169.0600000000000022737	1	169.0600000000000022737	169.0600000000000022737	0.1174620455404422337	73	10	5	2	4	18	4	1	300	50	8	29	0	56	3840.2400000000002364686	119	5
6.6.1	mac	0	2023-04-27	11:19:55	1	1	1	experiment	1	experiment_noU	3779	1	2	dynamic	POS	1						2	10	5	2	4	18	4	1	300	50	8	29	0	56	3840.2400000000002364686	119	5
6.6.1	mac	0	2023-04-27	11:19:55	1	1	1	experiment	1	dispFeedback_noU	1000	1	2	dynamic	POS	1	165.9099999999999965894	1	165.9099999999999965894	165.9099999999999965894	0.3211304581074813647	2	10	5	2	4	18	4	1	300	51	8	29	0	129	4006.1500000000000909495	124	5
6.6.1	mac	0	2023-04-27	11:19:55	1	1	1	experiment	1	experiment_noU	4155	1	93	dynamic	POS	1						93	10	5	2	4	18	4	1	300	51	8	29	0	129	4006.1500000000000909495	124	5
6.6.1	mac	0	2023-04-27	11:19:55	1	1	1	experiment	1	dispFeedback_noU	1000	1	93	dynamic	POS	1	169.5699999999999931788	1	169.5699999999999931788	169.5699999999999931788	0.6193397058219043405	93	10	5	2	4	18	4	1	300	52	8	29	0	55	4175.7200000000002546585	129	5
6.6.1	mac	0	2023-04-27	11:19:55	1	1	1	experiment	1	experiment_noU	482	1	69	dynamic	POS	1						69	10	5	2	4	18	4	1	300	52	8	29	0	55	4175.7200000000002546585	129	5
6.6.1	mac	0	2023-04-27	11:19:55	1	1	1	experiment	1	dispFeedback_noU	1000	1	69	dynamic	POS	1	162.9699999999999988631	1	162.9699999999999988631	162.9699999999999988631	0.2311492530235902398	69	10	5	2	4	18	4	1	300	53	8	29	0	182	4338.690000000000509317	134	5
6.6.1	mac	0	2023-04-27	11:19:55	1	1	1	experiment	1	experiment_noU	3037	1	16	dynamic	POS	1						16	10	5	2	4	18	4	1	300	53	8	29	0	182	4338.690000000000509317	134	5
6.6.1	mac	0	2023-04-27	11:19:55	1	1	1	experiment	1	dispFeedback_noU	1000	1	16	dynamic	POS	1	160.9699999999999988631	1	160.9699999999999988631	160.9699999999999988631	0.5532627481858392038	16	10	5	2	4	18	4	1	300	54	8	29	0	87	4499.6600000000007639755	139	5
6.6.1	mac	0	2023-04-27	11:19:55	1	1	1	experiment	1	experiment_noU	3987	1	98	dynamic	POS	1						98	10	5	2	4	18	4	1	300	54	8	29	0	87	4499.6600000000007639755	139	5
6.6.1	mac	0	2023-04-27	11:19:55	1	1	1	experiment	1	dispFeedback_noU	1000	1	98	dynamic	POS	1	161.5600000000000022737	1	161.5600000000000022737	161.5600000000000022737	0.8660396812171767822	98	10	5	2	4	18	4	1	300	55	8	29	0	137	4661.2200000000011641532	144	5
6.6.1	mac	0	2023-04-27	11:19:55	1	1	1	experiment	1	experiment_noU	1216	1	51	dynamic	POS	1						51	10	5	2	4	18	4	1	300	55	8	29	0	137	4661.2200000000011641532	144	5
6.6.1	mac	0	2023-04-27	11:19:55	1	1	1	experiment	1	dispFeedback_noU	1000	1	51	dynamic	POS	1	163.8799999999999954525	1	163.8799999999999954525	163.8799999999999954525	0.5006516535069448492	51	10	5	2	4	18	4	1	300	56	8	29	0	16	4825.1000000000012732926	149	5
6.6.1	mac	0	2023-04-27	11:19:55	1	1	1	experiment	1	experiment_noU	2574	1	25	dynamic	POS	1						25	10	5	2	4	18	4	1	300	56	8	29	0	16	4825.1000000000012732926	149	5
6.6.1	mac	0	2023-04-27	11:19:55	1	1	1	experiment	1	dispFeedback_noU	1000	1	25	dynamic	POS	1	158.3300000000000125056	1	158.3300000000000125056	158.3300000000000125056	0.2405766551942975784	25	10	5	2	4	18	4	1	300	57	8	29	0	74	4983.430000000001200533	154	5
6.6.1	mac	0	2023-04-27	11:19:55	1	1	1	experiment	1	experiment_noU	4261	1	89	dynamic	POS	1						89	10	5	2	4	18	4	1	300	57	8	29	0	74	4983.430000000001200533	154	5
6.6.1	mac	0	2023-04-27	11:19:55	1	1	1	experiment	1	dispFeedback_noU	1000	1	89	dynamic	POS	1	164.8000000000000113687	1	164.8000000000000113687	164.8000000000000113687	0.017444033878260299	89	10	5	2	4	18	4	1	300	58	8	29	0	4961	5148.2300000000013824319	159	5
6.6.1	mac	0	2023-04-27	11:19:55	1	1	1	experiment	1	experiment_noU	473	1	67	dynamic	POS	1						67	10	5	2	4	18	4	1	300	58	8	29	0	4961	5148.2300000000013824319	159	5
6.6.1	mac	0	2023-04-27	11:19:55	1	1	1	experiment	1	dispFeedback_noU	1000	1	67	dynamic	POS	1	162.3000000000000113687	1	162.3000000000000113687	162.3000000000000113687	0.9925366847292838024	67	10	5	2	4	18	4	1	300	59	8	29	0	73	5310.5300000000015643309	164	5
6.6.1	mac	0	2023-04-27	11:19:55	1	1	1	experiment	1	experiment_noU	4117	1	94	dynamic	POS	1						94	10	5	2	4	18	4	1	300	59	8	29	0	73	5310.5300000000015643309	164	5
6.6.1	mac	0	2023-04-27	11:19:55	1	1	1	experiment	1	dispFeedback_noU	1000	1	94	dynamic	POS	1	144.5	1	144.5	144.5	0.0764350989080115895	94	10	5	2	4	18	4	1	300	60	8	29	0	67	5455.0300000000015643309	169	5
6.6.1	mac	0	2023-04-27	11:19:55	1	1	1	experiment	1	experiment_noU	2093	1	34	dynamic	POS	1						34	10	5	2	4	18	4	1	300	60	8	29	0	67	5455.0300000000015643309	169	5
6.6.1	mac	0	2023-04-27	11:19:55	1	1	1	experiment	1	dispFeedback_noU	1000	1	34	dynamic	POS	1	130.2299999999999897682	1	130.2299999999999897682	130.2299999999999897682	0.1661687135151980188	34	10	5	2	4	18	4	1	300	61	8	29	0	43	5585.2600000000011277734	173.5	4.5
6.6.1	mac	0	2023-04-27	11:19:55	1	1	1	experiment	1	experiment_noU	2344	1	30	dynamic	POS	1						30	10	5	2	4	18	4	1	300	61	8	29	0	43	5585.2600000000011277734	173.5	4.5
6.6.1	mac	0	2023-04-27	11:19:55	1	1	1	experiment	1	dispFeedback_noU	1000	1	30	dynamic	POS	1	137.2299999999999897682	1	137.2299999999999897682	137.2299999999999897682	0.4926900806586933523	30	10	5	2	4	18	4	1	300	62	8	29	0	94	5722.490000000000691216	178.5	5
6.6.1	mac	0	2023-04-27	11:19:55	1	1	1	experiment	1	experiment_noU	759	1	89	dynamic	POS	1						89	10	5	2	4	18	4	1	300	62	8	29	0	94	5722.490000000000691216	178.5	5
6.6.1	mac	0	2023-04-27	11:19:55	1	1	1	experiment	1	dispFeedback_noU	1000	1	89	dynamic	POS	1	27.4100000000000001421	1	27.4100000000000001421	27.4100000000000001421	0.693970990761642148	89	10	5	2	4	18	4	1	300	63	8	29	0	1459	5749.9000000000005456968	179.5	1
6.6.1	mac	0	2023-04-27	11:19:55	1	1	1	experiment	1	experiment_noU	3591	1	4	dynamic	POS	1						4	10	5	2	4	18	4	1	300	63	8	29	0	1459	5749.9000000000005456968	179.5	1
6.6.1	mac	0	2023-04-27	11:19:55	1	1	1	experiment	1	dispFeedback_noU	1000	1	4	dynamic	POS	1	121.1200000000000045475	1	121.1200000000000045475	121.1200000000000045475	0.4718092390037628703	4	10	5	2	4	18	4	1	300	64	8	29	0	41	5871.0200000000004365575	183.5	4
6.6.1	mac	0	2023-04-27	11:19:55	1	1	1	experiment	1	experiment_noU	5317	1	69	dynamic	POS	1						69	10	5	2	4	18	4	1	300	64	8	29	0	41	5871.0200000000004365575	183.5	4
6.6.1	mac	0	2023-04-27	11:19:55	1	1	1	experiment	1	dispFeedback_noU	1000	1	69	dynamic	POS	1	105.9000000000000056843	1	105.9000000000000056843	105.9000000000000056843	0.8052193193708591101	69	10	5	2	4	18	4	1	300	65	8	29	0	17	5976.9200000000000727596	187.5	4
6.6.1	mac	0	2023-04-27	11:19:55	1	1	1	experiment	1	experiment_noU	5182	1	72	dynamic	POS	1						72	10	5	2	4	18	4	1	300	65	8	29	0	17	5976.9200000000000727596	187.5	4
6.6.1	mac	0	2023-04-27	11:19:55	1	1	1	experiment	1	dispFeedback_noU	1000	1	72	dynamic	POS	1	99.1500000000000056843	1	99.1500000000000056843	99.1500000000000056843	0.6544843240767913572	72	10	5	2	4	18	4	1	300	66	8	29	0	32	6076.0699999999997089617	191	3.5
6.6.1	mac	0	2023-04-27	11:19:55	1	1	1	experiment	1	experiment_noU	2124	1	34	dynamic	POS	1						34	10	5	2	4	18	4	1	300	66	8	29	0	32	6076.0699999999997089617	191	3.5
6.6.1	mac	0	2023-04-27	11:19:55	1	1	1	experiment	1	dispFeedback_noU	1000	1	34	dynamic	POS	1	76.2099999999999937472	1	76.2099999999999937472	76.2099999999999937472	0.902181893331506779	34	10	5	2	4	18	4	1	300	67	8	29	0	74	6152.2799999999997453415	194	3
6.6.1	mac	0	2023-04-27	11:19:55	1	1	1	experiment	1	experiment_noU	389	1	69	dynamic	POS	1						69	10	5	2	4	18	4	1	300	67	8	29	0	74	6152.2799999999997453415	194	3
6.6.1	mac	0	2023-04-27	11:19:55	1	1	1	experiment	1	dispFeedback_noU	1000	1	69	dynamic	POS	1	68.7900000000000062528	1	68.7900000000000062528	68.7900000000000062528	0.7023763574432526635	69	10	5	2	4	18	4	1	300	68	8	29	0	89	6221.0699999999997089617	196.5	2.5
6.6.1	mac	0	2023-04-27	11:19:55	1	1	1	experiment	1	experiment_noU	1555	1	45	dynamic	POS	1						45	10	5	2	4	18	4	1	300	68	8	29	0	89	6221.0699999999997089617	196.5	2.5
6.6.1	mac	0	2023-04-27	11:19:55	1	1	1	experiment	1	dispFeedback_noU	1000	1	45	dynamic	POS	1	45.7100000000000008527	1	45.7100000000000008527	45.7100000000000008527	0.8590093555066290465	45	10	5	2	4	18	4	1	300	69	8	29	0	55	6266.7799999999997453415	198	1.5
6.6.1	mac	0	2023-04-27	11:19:55	1	1	1	experiment	1	experiment_noU	563	1	3	dynamic	POS	1						3	10	5	2	4	18	4	1	300	69	8	29	0	55	6266.7799999999997453415	198	1.5
6.6.1	mac	0	2023-04-27	11:19:55	1	1	1	experiment	1	dispFeedback_noU	1000	1	3	dynamic	POS	1	77.9599999999999937472	1	77.9599999999999937472	77.9599999999999937472	0.4388947492555935748	3	10	5	2	4	18	4	1	300	70	8	29	0	1963	6344.7399999999997817213	201	3
6.6.1	mac	0	2023-04-27	11:19:55	1	1	1	experiment	1	experiment_noU	3132	1	49	dynamic	POS	1						49	10	5	2	4	18	4	1	300	70	8	29	0	1963	6344.7399999999997817213	201	3
6.6.1	mac	0	2023-04-27	11:19:55	1	1	1	experiment	1	dispFeedback_noU	1000	1	49	dynamic	POS	1	96.7399999999999948841	1	96.7399999999999948841	96.7399999999999948841	0.1229019225861183173	49	10	5	2	4	18	4	1	300	71	8	29	0	1832	6441.4799999999995634425	204.5	3.5
6.6.1	mac	0	2023-04-27	11:19:55	1	1	1	experiment	1	experiment_noU	2814	1	66	dynamic	POS	1						66	10	5	2	4	18	4	1	300	71	8	29	0	1832	6441.4799999999995634425	204.5	3.5
6.6.1	mac	0	2023-04-27	11:19:55	1	1	1	experiment	1	dispFeedback_noU	1000	1	66	dynamic	POS	1	54.3200000000000002842	1	54.3200000000000002842	54.3200000000000002842	0.863760139994267373	66	10	5	2	4	18	4	1	300	72	8	29	0	2364	6495.7999999999992724042	206.5	2
6.6.1	mac	0	2023-04-27	11:19:55	1	1	1	experiment	1	experiment_noU	2091	1	62	dynamic	POS	1						62	10	5	2	4	18	4	1	300	72	8	29	0	2364	6495.7999999999992724042	206.5	2
6.6.1	mac	0	2023-04-27	11:19:55	1	1	1	experiment	1	dispFeedback_noU	1000	1	62	dynamic	POS	1	116	1	116	116	0.4569244271742469721	62	10	5	2	4	18	4	1	300	73	8	29	0	1441	6611.7999999999992724042	210.5	4
6.6.1	mac	0	2023-04-27	11:19:55	1	1	1	experiment	1	experiment_noU	2661	1	44	dynamic	POS	1						44	10	5	2	4	18	4	1	300	73	8	29	0	1441	6611.7999999999992724042	210.5	4
6.6.1	mac	0	2023-04-27	11:19:55	1	1	1	experiment	1	dispFeedback_noU	1000	1	44	dynamic	POS	1	92.7199999999999988631	1	92.7199999999999988631	92.7199999999999988631	0.4890195900781591498	44	10	5	2	4	18	4	1	300	74	8	29	0	1111	6704.5199999999995270628	214	3.5
6.6.1	mac	0	2023-04-27	11:19:55	1	1	1	experiment	1	experiment_noU	3529	1	30	dynamic	POS	1						30	10	5	2	4	18	4	1	300	74	8	29	0	1111	6704.5199999999995270628	214	3.5
6.6.1	mac	0	2023-04-27	11:19:55	1	1	1	experiment	1	dispFeedback_noU	1000	1	30	dynamic	POS	1	123.9300000000000068212	1	123.9300000000000068212	123.9300000000000068212	0.151677379885613306	30	10	5	2	4	18	4	1	300	75	8	29	0	1279	6828.4499999999998181011	218	4
6.6.1	mac	0	2023-04-27	11:19:55	1	1	1	experiment	1	experiment_noU	554	1	9	dynamic	POS	1						9	10	5	2	4	18	4	1	300	75	8	29	0	1279	6828.4499999999998181011	218	4
6.6.1	mac	0	2023-04-27	11:19:55	1	1	1	experiment	1	dispFeedback_noU	1000	1	9	dynamic	POS	1	63.3100000000000022737	1	63.3100000000000022737	63.3100000000000022737	0.2031792148955118005	9	10	5	2	4	18	4	1	300	76	8	29	0	2254	6891.7600000000002182787	220.5	2.5
6.6.1	mac	0	2023-04-27	11:19:55	1	1	1	experiment	1	experiment_noU	3570	1	35	dynamic	POS	1						35	10	5	2	4	18	4	1	300	76	8	29	0	2254	6891.7600000000002182787	220.5	2.5
6.6.1	mac	0	2023-04-27	11:19:55	1	1	1	experiment	1	dispFeedback_noU	1000	1	35	dynamic	POS	1	167.5300000000000011369	1	167.5300000000000011369	167.5300000000000011369	0.7764437717330744393	35	10	5	2	4	18	4	1	300	77	8	29	0	1570	7059.2899999999999636202	225.5	5
6.6.1	mac	0	2023-04-27	11:19:55	1	1	1	experiment	1	experiment_noU	4146	1	23	dynamic	POS	1						23	10	5	2	4	18	4	1	300	77	8	29	0	1570	7059.2899999999999636202	225.5	5
6.6.1	mac	0	2023-04-27	11:19:55	1	1	1	experiment	1	dispFeedback_noU	1000	1	23	dynamic	POS	1	160.7100000000000079581	1	160.7100000000000079581	160.7100000000000079581	0.7808580635536597203	23	10	5	2	4	18	4	1	300	78	8	29	0	1546	7220	230.5	5
6.6.1	mac	0	2023-04-27	11:19:55	1	1	1	experiment	1	experiment_noU	4073	1	24	dynamic	POS	1						24	10	5	2	4	18	4	1	300	78	8	29	0	1546	7220	230.5	5
6.6.1	mac	0	2023-04-27	11:19:55	1	1	1	experiment	1	dispFeedback_noU	1000	1	24	dynamic	POS	1	163.0600000000000022737	1	163.0600000000000022737	163.0600000000000022737	0.6319458155501507246	24	10	5	2	4	18	4	1	300	79	8	29	0	1523	7383.0600000000004001777	235.5	5
6.6.1	mac	0	2023-04-27	11:19:55	1	1	1	experiment	1	experiment_noU	1413	1	78	dynamic	POS	1						78	10	5	2	4	18	4	1	300	79	8	29	0	1523	7383.0600000000004001777	235.5	5
6.6.1	mac	0	2023-04-27	11:19:55	1	1	1	experiment	1	dispFeedback_noU	1000	1	78	dynamic	POS	1	157.5300000000000011369	1	157.5300000000000011369	157.5300000000000011369	0.7241462771138517107	78	10	5	2	4	18	4	1	300	80	8	29	0	1563	7540.5900000000001455192	240.5	5
6.6.1	mac	0	2023-04-27	11:19:55	1	1	1	experiment	1	experiment_noU	1323	1	80	dynamic	POS	1						80	10	5	2	4	18	4	1	300	80	8	29	0	1563	7540.5900000000001455192	240.5	5
6.6.1	mac	0	2023-04-27	11:19:55	1	1	1	experiment	1	dispFeedback_noU	1000	1	80	dynamic	POS	1	162.8499999999999943157	1	162.8499999999999943157	162.8499999999999943157	0.6152650699054973416	80	10	5	2	4	18	4	1	300	81	8	29	0	1573	7703.440000000000509317	245.5	5
6.6.1	mac	0	2023-04-27	11:19:55	1	1	1	experiment	1	experiment_noU	3077	1	45	dynamic	POS	1						45	10	5	2	4	18	4	1	300	81	8	29	0	1573	7703.440000000000509317	245.5	5
6.6.1	mac	0	2023-04-27	11:19:55	1	1	1	experiment	1	dispFeedback_noU	1000	1	45	dynamic	POS	1	164.8700000000000045475	1	164.8700000000000045475	164.8700000000000045475	0.3691502721908386242	45	10	5	2	4	18	4	1	300	82	8	29	0	1577	7868.3100000000004001777	250.5	5
6.6.1	mac	0	2023-04-27	11:19:55	1	1	1	experiment	1	experiment_noU	2263	1	59	dynamic	POS	1						59	10	5	2	4	18	4	1	300	82	8	29	0	1577	7868.3100000000004001777	250.5	5
6.6.1	mac	0	2023-04-27	11:19:55	1	1	1	experiment	1	dispFeedback_noU	1000	1	59	dynamic	POS	1	157.25	1	157.25	157.25	0.8507560677478919198	59	10	5	2	4	18	4	1	300	83	8	29	0	1463	8025.5600000000004001777	255.5	5
6.6.1	mac	0	2023-04-27	11:19:55	1	1	1	experiment	1	experiment_noU	1563	1	73	dynamic	POS	1						73	10	5	2	4	18	4	1	300	83	8	29	0	1463	8025.5600000000004001777	255.5	5
6.6.1	mac	0	2023-04-27	11:19:55	1	1	1	experiment	1	dispFeedback_noU	1000	1	73	dynamic	POS	1	152.5300000000000011369	1	152.5300000000000011369	152.5300000000000011369	0.1779858926725541024	73	10	5	2	4	18	4	1	300	84	8	29	0	1463	8178.0900000000001455192	260.5	5
6.6.1	mac	0	2023-04-27	11:19:55	1	1	1	experiment	1	experiment_noU	3722	1	30	dynamic	POS	1						30	10	5	2	4	18	4	1	300	84	8	29	0	1463	8178.0900000000001455192	260.5	5
6.6.1	mac	0	2023-04-27	11:19:55	1	1	1	experiment	1	dispFeedback_noU	1000	1	30	dynamic	POS	1	169.8700000000000045475	1	169.8700000000000045475	169.8700000000000045475	0.3856185545180035867	30	10	5	2	4	18	4	1	300	85	8	29	0	1472	8347.9600000000009458745	265.5	5
6.6.1	mac	0	2023-04-27	11:19:55	1	1	1	experiment	1	experiment_noU	4164	1	21	dynamic	POS	1						21	10	5	2	4	18	4	1	300	85	8	29	0	1472	8347.9600000000009458745	265.5	5
6.6.1	mac	0	2023-04-27	11:19:55	1	1	1	experiment	1	dispFeedback_noU	1000	1	21	dynamic	POS	1	168.5699999999999931788	1	168.5699999999999931788	168.5699999999999931788	0.7265006673351164235	21	10	5	2	4	18	4	1	300	86	8	29	0	1464	8516.5300000000006548362	270.5	5
6.6.1	mac	0	2023-04-27	11:19:55	1	1	1	experiment	1	experiment_noU	3403	1	36	dynamic	POS	1						36	10	5	2	4	18	4	1	300	86	8	29	0	1464	8516.5300000000006548362	270.5	5
6.6.1	mac	0	2023-04-27	11:19:55	1	1	1	experiment	1	dispFeedback_noU	1000	1	36	dynamic	POS	1	160.8499999999999943157	1	160.8499999999999943157	160.8499999999999943157	0.5289915247189327374	36	10	5	2	4	18	4	1	300	87	8	29	0	1453	8677.3800000000010186341	275.5	5
6.6.1	mac	0	2023-04-27	11:19:55	1	1	1	experiment	1	experiment_noU	416	1	93	dynamic	POS	1						93	10	5	2	4	18	4	1	300	87	8	29	0	1453	8677.3800000000010186341	275.5	5
6.6.1	mac	0	2023-04-27	11:19:55	1	1	1	experiment	1	dispFeedback_noU	1000	1	93	dynamic	POS	1	135.4300000000000068212	1	135.4300000000000068212	135.4300000000000068212	0.3645915236241630275	93	10	5	2	4	18	4	1	300	88	8	29	0	1316	8812.8100000000013096724	280	4.5
6.6.1	mac	0	2023-04-27	11:19:55	1	1	1	experiment	1	experiment_noU	2077	1	62	dynamic	POS	1						62	10	5	2	4	18	4	1	300	88	8	29	0	1316	8812.8100000000013096724	280	4.5
6.6.1	mac	0	2023-04-27	11:19:55	1	1	1	experiment	1	dispFeedback_noU	1000	1	62	dynamic	POS	1	139.9499999999999886313	1	139.9499999999999886313	139.9499999999999886313	0.6567996839659288044	62	10	5	2	4	18	4	1	300	89	8	29	0	1427	8952.7600000000020372681	285	5
6.6.1	mac	0	2023-04-27	11:19:55	1	1	1	experiment	1	experiment_noU	1127	1	81	dynamic	POS	1						81	10	5	2	4	18	4	1	300	89	8	29	0	1427	8952.7600000000020372681	285	5
6.6.1	mac	0	2023-04-27	11:19:55	1	1	1	experiment	1	dispFeedback_noU	1000	1	81	dynamic	POS	1	119.519999999999996021	1	119.519999999999996021	119.519999999999996021	0.0224211553629537	81	10	5	2	4	18	4	1	300	90	8	29	0	1427	9072.2800000000024738256	289	4
6.6.1	mac	0	2023-04-27	11:19:55	1	1	1	experiment	1	experiment_noU	1480	1	77	dynamic	POS	1						77	10	5	2	4	18	4	1	300	90	8	29	0	1427	9072.2800000000024738256	289	4
6.6.1	mac	0	2023-04-27	11:19:55	1	1	1	experiment	1	dispFeedback_noU	1000	1	77	dynamic	POS	1	138.4199999999999874944	1	138.4199999999999874944	138.4199999999999874944	0.4219835792719348055	77	10	5	2	4	18	4	1	300	91	8	29	0	1580	9210.7000000000025465852	294	5
6.6.1	mac	0	2023-04-27	11:19:55	1	1	1	experiment	1	experiment_noU	2492	1	56	dynamic	POS	1						56	10	5	2	4	18	4	1	300	91	8	29	0	1580	9210.7000000000025465852	294	5
6.6.1	mac	0	2023-04-27	11:19:55	1	1	1	experiment	1	dispFeedback_noU	1000	1	56	dynamic	POS	1	124	1	124	124	0.7008578269045934173	56	10	5	2	4	18	4	1	300	92	8	29	0	1542	9334.7000000000025465852	298	4
6.6.1	mac	0	2023-04-27	11:19:55	1	1	1	experiment	1	experiment_noU	375	1	9	dynamic	POS	1						9	10	5	2	4	18	4	1	300	92	8	29	0	1542	9334.7000000000025465852	298	4
6.6.1	mac	0	2023-04-27	11:19:55	1	1	1	experiment	1	dispFeedback_noU	1000	1	9	dynamic	POS	1	127.2199999999999988631	1	127.2199999999999988631	127.2199999999999988631	0.0458460550396344729	9	10	5	2	4	18	4	1	300	93	8	29	0	2075	9461.920000000001891749	302.5	4.5
6.6.1	mac	0	2023-04-27	11:19:55	1	1	1	experiment	1	experiment_noU	3575	1	48	dynamic	POS	1						48	10	5	2	4	18	4	1	300	93	8	29	0	2075	9461.920000000001891749	302.5	4.5
6.6.1	mac	0	2023-04-27	11:19:55	1	1	1	experiment	1	dispFeedback_noU	1000	1	48	dynamic	POS	1	91.5	1	91.5	91.5	0.9051582924800828378	48	10	5	2	4	18	4	1	300	94	8	29	0	2225	9553.420000000001891749	306	3.5
6.6.1	mac	0	2023-04-27	11:19:55	1	1	1	experiment	1	experiment_noU	3558	1	32	dynamic	POS	1						32	10	5	2	4	18	4	1	300	94	8	29	0	2225	9553.420000000001891749	306	3.5
6.6.1	mac	0	2023-04-27	11:19:55	1	1	1	experiment	1	dispFeedback_noU	1000	1	32	dynamic	POS	1	92.2000000000000028422	1	92.2000000000000028422	92.2000000000000028422	0.9718244925541394963	32	10	5	2	4	18	4	1	300	95	8	29	0	1408	9645.6200000000026193447	309.5	3.5
6.6.1	mac	0	2023-04-27	11:19:55	1	1	1	experiment	1	experiment_noU	949	1	88	dynamic	POS	1						88	10	5	2	4	18	4	1	300	95	8	29	0	1408	9645.6200000000026193447	309.5	3.5
6.6.1	mac	0	2023-04-27	11:19:55	1	1	1	experiment	1	dispFeedback_noU	1000	1	88	dynamic	POS	1	109.6099999999999994316	1	109.6099999999999994316	109.6099999999999994316	0.9828477785882651085	88	10	5	2	4	18	4	1	300	96	8	29	0	1599	9755.2300000000032014214	313.5	4
6.6.1	mac	0	2023-04-27	11:19:55	1	1	1	experiment	1	experiment_noU	1182	1	87	dynamic	POS	1						87	10	5	2	4	18	4	1	300	96	8	29	0	1599	9755.2300000000032014214	313.5	4
6.6.1	mac	0	2023-04-27	11:19:55	1	1	1	experiment	1	dispFeedback_noU	1000	1	87	dynamic	POS	1	94.9699999999999988631	1	94.9699999999999988631	94.9699999999999988631	0.6360723880669270081	87	10	5	2	4	18	4	1	300	97	8	29	0	1782	9850.2000000000025465852	317	3.5
6.6.1	mac	0	2023-04-27	11:19:55	1	1	1	experiment	1	experiment_noU	397	1	10	dynamic	POS	1						10	10	5	2	4	18	4	1	300	97	8	29	0	1782	9850.2000000000025465852	317	3.5
6.6.1	mac	0	2023-04-27	11:19:55	1	1	1	experiment	1	dispFeedback_noU	1000	1	10	dynamic	POS	1	70.9099999999999965894	1	70.9099999999999965894	70.9099999999999965894	0.4159077090248250452	10	10	5	2	4	18	4	1	300	98	8	29	0	2147	9921.110000000002401066	319.5	2.5
6.6.1	mac	0	2023-04-27	11:19:55	1	1	1	experiment	1	experiment_noU	1228	1	84	dynamic	POS	1						84	10	5	2	4	18	4	1	300	98	8	29	0	2147	9921.110000000002401066	319.5	2.5
6.6.1	mac	0	2023-04-27	11:19:55	1	1	1	experiment	1	dispFeedback_noU	1000	1	84	dynamic	POS	1	73.75	1	73.75	73.75	0.8110678337540170313	84	10	5	2	4	18	4	1	300	99	8	29	0	1678	9994.860000000002401066	322	2.5
6.6.1	mac	0	2023-04-27	11:19:55	1	1	1	experiment	1	experiment_noU	3706	1	36	dynamic	POS	1						36	10	5	2	4	18	4	1	300	99	8	29	0	1678	9994.860000000002401066	322	2.5
6.6.1	mac	0	2023-04-27	11:19:55	1	1	1	experiment	1	dispFeedback_noU	1000	1	36	dynamic	POS	1	45.8999999999999985789	1	45.8999999999999985789	45.8999999999999985789	0.4102991517657179066	36	10	5	2	4	18	4	1	300	100	8	29	0	1756	10040.7600000000020372681	323.5	1.5
6.6.1	mac	0	2023-04-27	11:19:55	1	1	1	experiment	1	experiment_noU	1172	1	88	dynamic	POS	1						88	10	5	2	4	18	4	1	300	100	8	29	0	1756	10040.7600000000020372681	323.5	1.5
6.6.1	mac	0	2023-04-27	11:19:55	1	1	1	experiment	1	dispFeedback_noU	1000	1	88	dynamic	POS	1	46.9699999999999988631	1	46.9699999999999988631	46.9699999999999988631	0.3320308600859788184	88	10	5	2	4	18	4	1	300	101	8	29	0	1822	10087.7300000000013824319	325.5	2
6.6.1	mac	0	2023-04-27	11:19:55	1	1	1	experiment	1	experiment_noU	4403	1	22	dynamic	POS	1						22	10	5	2	4	18	4	1	300	101	8	29	0	1822	10087.7300000000013824319	325.5	2
6.6.1	mac	0	2023-04-27	11:19:55	1	1	1	experiment	1	dispFeedback_noU	1000	1	22	dynamic	POS	1	37.8100000000000022737	1	37.8100000000000022737	37.8100000000000022737	0.3754338764994018529	22	10	5	2	4	18	4	1	300	102	8	29	0	1753	10125.5400000000008731149	327	1.5
6.6.1	mac	0	2023-04-27	11:19:55	1	1	1	experiment	1	experiment_noU	497	1	31	dynamic	POS	1						31	10	5	2	4	18	4	1	300	102	8	29	0	1753	10125.5400000000008731149	327	1.5
6.6.1	mac	0	2023-04-27	11:19:55	1	1	1	experiment	1	dispFeedback_noU	1000	1	31	dynamic	POS	1	90.9699999999999988631	1	90.9699999999999988631	90.9699999999999988631	0.9732816135448593142	31	10	5	2	4	18	4	1	300	103	8	29	0	3297	10216.5100000000002182787	330.5	3.5
6.6.1	mac	0	2023-04-27	11:19:55	1	1	1	experiment	1	experiment_noU	1660	1	17	dynamic	POS	1						17	10	5	2	4	18	4	1	300	103	8	29	0	3297	10216.5100000000002182787	330.5	3.5
6.6.1	mac	0	2023-04-27	11:19:55	1	1	1	experiment	1	dispFeedback_noU	1000	1	17	dynamic	POS	1	105.6099999999999994316	1	105.6099999999999994316	105.6099999999999994316	0.3917145359776249558	17	10	5	2	4	18	4	1	300	104	8	29	0	3760	10322.1200000000008003553	334.5	4
6.6.1	mac	0	2023-04-27	11:19:55	1	1	1	experiment	1	experiment_noU	2440	1	9	dynamic	POS	1						9	10	5	2	4	18	4	1	300	104	8	29	0	3760	10322.1200000000008003553	334.5	4
6.6.1	mac	0	2023-04-27	11:19:55	1	1	1	experiment	1	dispFeedback_noU	1000	1	9	dynamic	POS	1	55.5799999999999982947	1	55.5799999999999982947	55.5799999999999982947	0.2336587915741044075	9	10	5	2	4	18	4	1	300	105	8	29	0	4140	10377.7000000000007275958	336.5	2
6.6.1	mac	0	2023-04-27	11:19:55	1	1	1	experiment	1	experiment_noU	2006	1	9	dynamic	POS	1						9	10	5	2	4	18	4	1	300	105	8	29	0	4140	10377.7000000000007275958	336.5	2
6.6.1	mac	0	2023-04-27	11:19:55	1	1	1	experiment	1	dispFeedback_noU	1000	1	9	dynamic	POS	1	128.5999999999999943157	1	128.5999999999999943157	128.5999999999999943157	0.2141911611459663134	9	10	5	2	4	18	4	1	300	106	8	29	0	3706	10506.3000000000010913936	341	4.5
6.6.1	mac	0	2023-04-27	11:19:55	1	1	1	experiment	1	experiment_noU	340	1	43	dynamic	POS	1						43	10	5	2	4	18	4	1	300	106	8	29	0	3706	10506.3000000000010913936	341	4.5
6.6.1	mac	0	2023-04-27	11:19:55	1	1	1	experiment	1	dispFeedback_noU	1000	1	43	dynamic	POS	1	136.0500000000000113687	1	136.0500000000000113687	136.0500000000000113687	0.0091807481388516601	43	10	5	2	4	18	4	1	300	107	8	29	0	3740	10642.3500000000003637979	346	5
6.6.1	mac	0	2023-04-27	11:19:55	1	1	1	experiment	1	experiment_noU	1188	1	26	dynamic	POS	1						26	10	5	2	4	18	4	1	300	107	8	29	0	3740	10642.3500000000003637979	346	5
6.6.1	mac	0	2023-04-27	11:19:55	1	1	1	experiment	1	dispFeedback_noU	1000	1	26	dynamic	POS	1	146.1899999999999977263	1	146.1899999999999977263	146.1899999999999977263	0.6203054295900057857	26	10	5	2	4	18	4	1	300	108	8	29	0	3738	10788.5400000000008731149	351	5
6.6.1	mac	0	2023-04-27	11:19:55	1	1	1	experiment	1	experiment_noU	1155	1	27	dynamic	POS	1						27	10	5	2	4	18	4	1	300	108	8	29	0	3738	10788.5400000000008731149	351	5
6.6.1	mac	0	2023-04-27	11:19:55	1	1	1	experiment	1	dispFeedback_noU	1000	1	27	dynamic	POS	1	158.1800000000000068212	1	158.1800000000000068212	158.1800000000000068212	0.3398125307494337943	27	10	5	2	4	18	4	1	300	109	8	29	0	3755	10946.7200000000011641532	356	5
6.6.1	mac	0	2023-04-27	11:19:55	1	1	1	experiment	1	experiment_noU	836	1	34	dynamic	POS	1						34	10	5	2	4	18	4	1	300	109	8	29	0	3755	10946.7200000000011641532	356	5
6.6.1	mac	0	2023-04-27	11:19:55	1	1	1	experiment	1	dispFeedback_noU	1000	1	34	dynamic	POS	1	150.3300000000000125056	1	150.3300000000000125056	150.3300000000000125056	0.3946192728808660122	34	10	5	2	4	18	4	1	300	110	8	29	0	3786	11097.0500000000010913936	361	5
6.6.1	mac	0	2023-04-27	11:19:55	1	1	1	experiment	1	experiment_noU	2144	1	7	dynamic	POS	1						7	10	5	2	4	18	4	1	300	110	8	29	0	3786	11097.0500000000010913936	361	5
6.6.1	mac	0	2023-04-27	11:19:55	1	1	1	experiment	1	dispFeedback_noU	1000	1	7	dynamic	POS	1	157.9699999999999988631	1	157.9699999999999988631	157.9699999999999988631	0.8909412610556327605	7	10	5	2	4	18	4	1	300	111	8	29	0	3744	11255.0200000000004365575	366	5
6.6.1	mac	0	2023-04-27	11:19:55	1	1	1	experiment	1	experiment_noU	2153	1	6	dynamic	POS	1						6	10	5	2	4	18	4	1	300	111	8	29	0	3744	11255.0200000000004365575	366	5
6.6.1	mac	0	2023-04-27	11:19:55	1	1	1	experiment	1	dispFeedback_noU	1000	1	6	dynamic	POS	1	165.6999999999999886313	1	165.6999999999999886313	165.6999999999999886313	0.6735076070002996573	6	10	5	2	4	18	4	1	300	112	8	29	0	3703	11420.7200000000011641532	371	5
6.6.1	mac	0	2023-04-27	11:19:55	1	1	1	experiment	1	experiment_noU	2881	1	91	dynamic	POS	1						91	10	5	2	4	18	4	1	300	112	8	29	0	3703	11420.7200000000011641532	371	5
6.6.1	mac	0	2023-04-27	11:19:55	1	1	1	experiment	1	dispFeedback_noU	1000	1	91	dynamic	POS	1	162.7100000000000079581	1	162.7100000000000079581	162.7100000000000079581	0.6899390822951539937	91	10	5	2	4	18	4	1	300	113	8	29	0	3681	11583.4300000000002910383	376	5
6.6.1	mac	0	2023-04-27	11:19:55	1	1	1	experiment	1	experiment_noU	3467	1	79	dynamic	POS	1						79	10	5	2	4	18	4	1	300	113	8	29	0	3681	11583.4300000000002910383	376	5
6.6.1	mac	0	2023-04-27	11:19:55	1	1	1	experiment	1	dispFeedback_noU	1000	1	79	dynamic	POS	1	165.1200000000000045475	1	165.1200000000000045475	165.1200000000000045475	0.4992019411873077073	79	10	5	2	4	18	4	1	300	114	8	29	0	3667	11748.5500000000010913936	381	5
6.6.1	mac	0	2023-04-27	11:19:55	1	1	1	experiment	1	experiment_noU	3294	1	82	dynamic	POS	1						82	10	5	2	4	18	4	1	300	114	8	29	0	3667	11748.5500000000010913936	381	5
6.6.1	mac	0	2023-04-27	11:19:55	1	1	1	experiment	1	dispFeedback_noU	1000	1	82	dynamic	POS	1	169.8799999999999954525	1	169.8799999999999954525	169.8799999999999954525	0.7922812215500234512	82	10	5	2	4	18	4	1	300	115	8	29	0	3644	11918.4300000000002910383	386	5
6.6.1	mac	0	2023-04-27	11:19:55	1	1	1	experiment	1	experiment_noU	2041	1	8	dynamic	POS	1						8	10	5	2	4	18	4	1	300	115	8	29	0	3644	11918.4300000000002910383	386	5
6.6.1	mac	0	2023-04-27	11:19:55	1	1	1	experiment	1	dispFeedback_noU	1000	1	8	dynamic	POS	1	170.8000000000000113687	1	170.8000000000000113687	170.8000000000000113687	0.1316059807156226558	8	10	5	2	4	18	4	1	300	116	8	29	0	3691	12089.2299999999995634425	391	5
6.6.1	mac	0	2023-04-27	11:19:55	1	1	1	experiment	1	experiment_noU	3013	1	89	dynamic	POS	1						89	10	5	2	4	18	4	1	300	116	8	29	0	3691	12089.2299999999995634425	391	5
6.6.1	mac	0	2023-04-27	11:19:55	1	1	1	experiment	1	dispFeedback_noU	1000	1	89	dynamic	POS	1	164.4799999999999897682	1	164.4799999999999897682	164.4799999999999897682	0.3774647199030650713	89	10	5	2	4	18	4	1	300	117	8	29	0	3713	12253.7099999999991268851	396	5
6.6.1	mac	0	2023-04-27	11:19:55	1	1	1	experiment	1	experiment_noU	330	1	53	dynamic	POS	1						53	10	5	2	4	18	4	1	300	117	8	29	0	3713	12253.7099999999991268851	396	5
6.6.1	mac	0	2023-04-27	11:19:55	1	1	1	experiment	1	dispFeedback_noU	1000	1	53	dynamic	POS	1	89.2800000000000011369	1	89.2800000000000011369	89.2800000000000011369	0.1357292051277424194	53	10	5	2	4	18	4	1	300	118	8	29	0	4230	12342.9899999999997817213	399.5	3.5
6.6.1	mac	0	2023-04-27	11:19:55	1	1	1	experiment	1	experiment_noU	1980	1	8	dynamic	POS	1						8	10	5	2	4	18	4	1	300	118	8	29	0	4230	12342.9899999999997817213	399.5	3.5
6.6.1	mac	0	2023-04-27	11:19:55	1	1	1	experiment	1	dispFeedback_noU	1000	1	8	dynamic	POS	1	163.8799999999999954525	1	163.8799999999999954525	163.8799999999999954525	0.8951313390618029775	8	10	5	2	4	18	4	1	300	119	8	29	0	3630	12506.8699999999989813659	404.5	5
6.6.1	mac	0	2023-04-27	11:19:55	1	1	1	experiment	1	experiment_noU	4315	1	61	dynamic	POS	1						61	10	5	2	4	18	4	1	300	119	8	29	0	3630	12506.8699999999989813659	404.5	5
6.6.1	mac	0	2023-04-27	11:19:55	1	1	1	experiment	1	dispFeedback_noU	1000	1	61	dynamic	POS	1	169.4799999999999897682	1	169.4799999999999897682	169.4799999999999897682	0.892259815217056218	61	10	5	2	4	18	4	1	300	120	8	29	0	3615	12676.3499999999985448085	409.5	5
6.6.1	mac	0	2023-04-27	11:19:55	1	1	1	experiment	1	experiment_noU	1723	1	12	dynamic	POS	1						12	10	5	2	4	18	4	1	300	120	8	29	0	3615	12676.3499999999985448085	409.5	5
6.6.1	mac	0	2023-04-27	11:19:55	1	1	1	experiment	1	dispFeedback_noU	1000	1	12	dynamic	POS	1	171.9099999999999965894	1	171.9099999999999965894	171.9099999999999965894	0.5089562571395552792	12	10	5	2	4	18	4	1	300	121	8	29	0	3573	12848.2599999999983992893	414.5	5
6.6.1	mac	0	2023-04-27	11:19:55	1	1	1	experiment	1	experiment_noU	358	1	21	dynamic	POS	1						21	10	5	2	4	18	4	1	300	121	8	29	0	3573	12848.2599999999983992893	414.5	5
