build	computer.platform	computer.touch	date	time	subject	group	sessionid	blockcode	blocknum	block	n_blocks	trialcode	latency	n_trials	block_length	best	trial	run_trial	block_type	list.triallist.currentindex	startPos	stim_center_deg	choose_stim	run_trial_dum	n_attention	n_erasure	n_no_erasure	n_clicks	require_attention	require_no_erasure	require_erasure	timeouts_remain	timeout_block	generate_new_erasure	n_curr_block
6.6.1	mac	0	2023-10-11	16:17:02	1	1	1	experiment	1	1	3	ITI	230	45	15	6	1	1	attention	1	0	0	0	1	0	0	0	0	4	6	5	1	0	1	4
6.6.1	mac	0	2023-10-11	16:17:02	1	1	1	experiment	1	1	3	preFreeze	520	45	15	6	1	1	attention	1	0	0	0	1	0	0	0	0	4	6	5	1	0	1	4
6.6.1	mac	0	2023-10-11	16:17:02	1	1	1	experiment	1	1	3	clock	5720	45	15	6	1	1	attention	1	94	0	0	1	0	0	0	0	4	6	5	1	0	1	4
6.6.1	mac	0	2023-10-11	16:17:02	1	1	1	experiment	1	1	3	ISI	270	45	15	6	1	1	attention	1	94	0	0	1	0	0	0	0	4	6	5	1	0	1	4
6.6.1	mac	0	2023-10-11	16:17:02	1	1	1	experiment	1	1	3	feedback	1000	45	15	6	1	1	attention	1	94	0	0	2	1	0	0	0	4	6	5	1	0	0	3
6.6.1	mac	0	2023-10-11	16:17:02	1	1	1	experiment	1	1	3	ITI	150	45	15	6	2	2	attention	2	94	0	0	2	1	0	0	0	4	6	5	1	0	0	3
6.6.1	mac	0	2023-10-11	16:17:02	1	1	1	experiment	1	1	3	preFreeze	510	45	15	6	2	2	attention	2	94	0	0	2	1	0	0	0	4	6	5	1	0	0	3
6.6.1	mac	0	2023-10-11	16:17:02	1	1	1	experiment	1	1	3	clock	1038	45	15	6	2	2	attention	2	21	0	0	2	1	0	0	0	4	6	5	1	0	0	3
6.6.1	mac	0	2023-10-11	16:17:02	1	1	1	experiment	1	1	3	ISI	230	45	15	6	2	2	attention	2	21	0	0	2	1	0	0	0	4	6	5	1	0	0	3
6.6.1	mac	0	2023-10-11	16:17:02	1	1	1	experiment	1	1	3	feedback	1000	45	15	6	2	2	attention	2	21	0	0	3	2	0	0	0	4	6	5	1	0	0	2
6.6.1	mac	0	2023-10-11	16:17:02	1	1	1	experiment	1	1	3	ITI	160	45	15	6	3	3	attention	3	21	0	0	3	2	0	0	0	4	6	5	1	0	0	2
6.6.1	mac	0	2023-10-11	16:17:02	1	1	1	experiment	1	1	3	preFreeze	680	45	15	6	3	3	attention	3	21	0	0	3	2	0	0	0	4	6	5	1	0	0	2
6.6.1	mac	0	2023-10-11	16:17:02	1	1	1	experiment	1	1	3	clock	1616	45	15	6	3	3	attention	3	69	0	0	3	2	0	0	0	4	6	5	1	0	0	2
6.6.1	mac	0	2023-10-11	16:17:02	1	1	1	experiment	1	1	3	ISI	260	45	15	6	3	3	attention	3	69	0	0	3	2	0	0	0	4	6	5	1	0	0	2
6.6.1	mac	0	2023-10-11	16:17:02	1	1	1	experiment	1	1	3	feedback	1000	45	15	6	3	3	attention	3	69	0	0	4	3	0	0	0	4	6	5	1	0	0	1
6.6.1	mac	0	2023-10-11	16:17:02	1	1	1	experiment	1	1	3	ITI	320	45	15	6	4	4	attention	4	69	0	0	4	3	0	0	0	4	6	5	1	0	0	1
6.6.1	mac	0	2023-10-11	16:17:02	1	1	1	experiment	1	1	3	preFreeze	620	45	15	6	4	4	attention	4	69	0	0	4	3	0	0	0	4	6	5	1	0	0	1
6.6.1	mac	0	2023-10-11	16:17:02	1	1	1	experiment	1	1	3	clock	1102	45	15	6	4	4	attention	4	18	0	0	4	3	0	0	0	4	6	5	1	0	0	1
6.6.1	mac	0	2023-10-11	16:17:02	1	1	1	experiment	1	1	3	ISI	280	45	15	6	4	4	attention	4	18	0	0	4	3	0	0	0	4	6	5	1	0	0	1
6.6.1	mac	0	2023-10-11	16:17:02	1	1	1	experiment	1	1	3	feedback	1000	45	15	6	4	4	attention	4	18	0	0	5	4	0	0	0	4	6	5	1	0	0	0
6.6.1	mac	0	2023-10-11	16:17:02	1	1	1	experiment	1	1	3	ITI	100	45	15	6	5	5	attention	5	18	0	0	5	4	0	0	0	4	6	5	1	0	0	0
6.6.1	mac	0	2023-10-11	16:17:02	1	1	1	experiment	1	1	3	preFreeze	630	45	15	6	5	5	attention	5	18	0	0	5	4	0	0	0	4	6	5	1	0	0	0
6.6.1	mac	0	2023-10-11	16:17:02	1	1	1	experiment	1	1	3	clock	1577	45	15	6	5	5	attention	5	16	0	0	5	4	0	0	0	4	6	5	1	0	0	0
6.6.1	mac	0	2023-10-11	16:17:02	1	1	1	experiment	1	1	3	ISI	500	45	15	6	5	5	attention	5	16	0	0	5	4	0	0	0	4	6	5	1	0	0	0
6.6.1	mac	0	2023-10-11	16:17:02	1	1	1	experiment	1	1	3	feedback	1000	45	15	6	5	5	attention	5	16	0	0	6	5	0	0	0	4	6	5	1	0	0	-1
6.6.1	mac	0	2023-10-11	16:17:02	1	1	1	experiment	1	1	3	ITI	280	45	15	6	6	6	attention	6	16	0	0	6	5	0	0	0	4	6	5	1	0	0	-1
6.6.1	mac	0	2023-10-11	16:17:02	1	1	1	experiment	1	1	3	preFreeze	590	45	15	6	6	6	attention	6	16	0	0	6	5	0	0	0	4	6	5	1	0	0	-1
6.6.1	mac	0	2023-10-11	16:17:02	1	1	1	experiment	1	1	3	clock	1258	45	15	6	6	6	attention	6	73	0	0	6	5	0	0	0	4	6	5	1	0	0	-1
6.6.1	mac	0	2023-10-11	16:17:02	1	1	1	experiment	1	1	3	ISI	480	45	15	6	6	6	attention	6	73	0	0	6	5	0	0	0	4	6	5	1	0	0	-1
6.6.1	mac	0	2023-10-11	16:17:02	1	1	1	experiment	1	1	3	feedback	1000	45	15	6	6	6	attention	6	73	0	0	7	6	0	0	0	4	6	5	1	0	0	-2
6.6.1	mac	0	2023-10-11	16:17:02	1	1	1	experiment	1	1	3	ITI	430	45	15	6	7	7	attention	7	73	0	0	7	6	0	0	0	4	6	5	1	0	0	-2
6.6.1	mac	0	2023-10-11	16:17:02	1	1	1	experiment	1	1	3	preFreeze	530	45	15	6	7	7	attention	7	73	0	0	7	6	0	0	0	4	6	5	1	0	0	-2
6.6.1	mac	0	2023-10-11	16:17:02	1	1	1	experiment	1	1	3	clock	1036	45	15	6	7	7	attention	7	21	0	0	7	6	0	0	0	4	6	5	1	0	0	-2
6.6.1	mac	0	2023-10-11	16:17:02	1	1	1	experiment	1	1	3	ISI	310	45	15	6	7	7	attention	7	21	0	0	7	6	0	0	0	4	6	5	1	0	0	-2
6.6.1	mac	0	2023-10-11	16:17:02	1	1	1	experiment	1	1	3	feedback	1000	45	15	6	7	7	attention	7	21	0	0	8	7	0	0	0	4	6	5	1	0	0	-3
6.6.1	mac	0	2023-10-11	16:17:02	1	1	1	experiment	1	1	3	ITI	340	45	15	6	8	8	attention	8	21	0	0	8	7	0	0	0	4	6	5	1	0	0	-3
6.6.1	mac	0	2023-10-11	16:17:02	1	1	1	experiment	1	1	3	preFreeze	610	45	15	6	8	8	attention	8	21	0	0	8	7	0	0	0	4	6	5	1	0	0	-3
6.6.1	mac	0	2023-10-11	16:17:02	1	1	1	experiment	1	1	3	clock	768	45	15	6	8	8	attention	8	91	0	0	8	7	0	0	0	4	6	5	1	0	0	-3
6.6.1	mac	0	2023-10-11	16:17:02	1	1	1	experiment	1	1	3	ISI	250	45	15	6	8	8	attention	8	91	0	0	8	7	0	0	0	4	6	5	1	0	0	-3
6.6.1	mac	0	2023-10-11	16:17:02	1	1	1	experiment	1	1	3	feedback	1000	45	15	6	8	8	attention	8	91	0	0	9	8	0	0	0	4	6	5	1	0	0	-4
6.6.1	mac	0	2023-10-11	16:17:02	1	1	1	experiment	1	1	3	ITI	500	45	15	6	9	9	attention	9	91	0	0	9	8	0	0	0	4	6	5	1	0	0	-4
6.6.1	mac	0	2023-10-11	16:17:02	1	1	1	experiment	1	1	3	preFreeze	700	45	15	6	9	9	attention	9	91	0	0	9	8	0	0	0	4	6	5	1	0	0	-4
6.6.1	mac	0	2023-10-11	16:17:02	1	1	1	experiment	1	1	3	clock	541	45	15	6	9	9	attention	9	48	0	0	9	8	0	0	0	4	6	5	1	0	0	-4
6.6.1	mac	0	2023-10-11	16:17:02	1	1	1	experiment	1	1	3	ISI	390	45	15	6	9	9	attention	9	48	0	0	9	8	0	0	0	4	6	5	1	0	0	-4
6.6.1	mac	0	2023-10-11	16:17:02	1	1	1	experiment	1	1	3	feedback	1000	45	15	6	9	9	attention	9	48	0	0	10	9	0	0	0	4	6	5	1	0	0	-5
6.6.1	mac	0	2023-10-11	16:17:02	1	1	1	experiment	1	1	3	ITI	240	45	15	6	10	10	attention	10	48	0	0	10	9	0	0	0	4	6	5	1	0	0	-5
6.6.1	mac	0	2023-10-11	16:17:02	1	1	1	experiment	1	1	3	preFreeze	580	45	15	6	10	10	attention	10	48	0	0	10	9	0	0	0	4	6	5	1	0	0	-5
6.6.1	mac	0	2023-10-11	16:17:02	1	1	1	experiment	1	1	3	clock	221	45	15	6	10	10	attention	10	82	0	0	10	9	0	0	0	4	6	5	1	0	0	-5
