build	computer.platform	computer.touch	date	time	subject	group	sessionid	blockcode	blocknum	block	n_blocks	trialcode	latency	n_trials	block_length	best	trial	run_trial	block_type	list.triallist.currentindex	startPos	pos_shifted	rt_shifted	rt_index	list.curr_values.nextvalue	mag	ev	rng	inc	inc_rg	stim_center_deg	choose_stim	run_trial_dum	n_attention	n_erasure	n_no_erasure	n_clicks	require_attention	require_no_erasure	require_erasure	timeouts_remain	timeout_block	generate_new_erasure	n_curr_block	list.degrees_att.currentvalue	list.degrees_era.currentvalue
6.6.1	mac	0	2023-10-12	15:51:15	1	1	1	experiment	1	1	3	ITI	260	45	15	6	1	1	attention	1	0					0					179	0	1	0	0	0	0	4	6	5	1	0	1	4	89	
6.6.1	mac	0	2023-10-12	15:51:15	1	1	1	experiment	1	1	3	preFreeze	640	45	15	6	1	1	attention	1	0					0					179	0	1	0	0	0	0	4	6	5	1	0	1	4	89	
6.6.1	mac	0	2023-10-12	15:51:15	1	1	1	experiment	1	1	3	clock	306	45	15	6	1	1	attention	1	74					0					179	0	1	0	0	0	0	4	6	5	1	0	1	4	89	
6.6.1	mac	0	2023-10-12	15:51:15	1	1	1	experiment	1	1	3	ISI	260	45	15	6	1	1	attention	1	74					0					179	0	1	0	0	0	0	4	6	5	1	0	1	4	89	
6.6.1	mac	0	2023-10-12	15:51:15	1	1	1	experiment	1	1	3	feedback	1000	45	15	6	1	1	attention	1	74	18.4319999999999986073	256	18		40	28	0.2179421082180789948	40	40	179	0	2	1	0	0	0	4	6	5	1	0	0	3	89	
6.6.1	mac	0	2023-10-12	15:51:15	1	1	1	experiment	1	1	3	ITI	390	45	15	6	2	2	attention	2	74			18		40					179	0	2	1	0	0	0	4	6	5	1	0	0	3	89	
6.6.1	mac	0	2023-10-12	15:51:15	1	1	1	experiment	1	1	3	preFreeze	600	45	15	6	2	2	attention	2	74			18		40					179	0	2	1	0	0	0	4	6	5	1	0	0	3	89	
6.6.1	mac	0	2023-10-12	15:51:15	1	1	1	experiment	1	1	3	clock	185	45	15	6	2	2	attention	2	13			18		40					179	0	2	1	0	0	0	4	6	5	1	0	0	3	89	
6.6.1	mac	0	2023-10-12	15:51:15	1	1	1	experiment	1	1	3	ISI	480	45	15	6	2	2	attention	2	13			18		40					179	0	2	1	0	0	0	4	6	5	1	0	0	3	89	
6.6.1	mac	0	2023-10-12	15:51:15	1	1	1	experiment	1	1	3	feedback	1000	45	15	6	2	2	attention	2	13	150.1200000000000045475	2085	150		132	92.3999999999999914735	0.1741632114104375295	132	132	179	0	3	2	0	0	0	4	6	5	1	0	0	2	89	
6.6.1	mac	0	2023-10-12	15:51:15	1	1	1	experiment	1	1	3	ITI	220	45	15	6	3	3	attention	3	13			150		132					179	0	3	2	0	0	0	4	6	5	1	0	0	2	89	
6.6.1	mac	0	2023-10-12	15:51:15	1	1	1	experiment	1	1	3	preFreeze	530	45	15	6	3	3	attention	3	13			150		132					179	0	3	2	0	0	0	4	6	5	1	0	0	2	89	
6.6.1	mac	0	2023-10-12	15:51:15	1	1	1	experiment	1	1	3	clock	234	45	15	6	3	3	attention	3	81			150		132					179	0	3	2	0	0	0	4	6	5	1	0	0	2	89	
6.6.1	mac	0	2023-10-12	15:51:15	1	1	1	experiment	1	1	3	ISI	380	45	15	6	3	3	attention	3	81			150		132					179	0	3	2	0	0	0	4	6	5	1	0	0	2	89	
6.6.1	mac	0	2023-10-12	15:51:15	1	1	1	experiment	1	1	3	feedback	1000	45	15	6	3	3	attention	3	81	38.4480000000000003979	534	38		24	16.7999999999999971578	0.0552139189222859983	24	24	179	0	4	3	0	0	0	4	6	5	1	0	0	1	89	
6.6.1	mac	0	2023-10-12	15:51:15	1	1	1	experiment	1	1	3	ITI	130	45	15	6	4	4	attention	4	81			38		24					179	0	4	3	0	0	0	4	6	5	1	0	0	1	89	
6.6.1	mac	0	2023-10-12	15:51:15	1	1	1	experiment	1	1	3	preFreeze	560	45	15	6	4	4	attention	4	81			38		24					179	0	4	3	0	0	0	4	6	5	1	0	0	1	89	
6.6.1	mac	0	2023-10-12	15:51:15	1	1	1	experiment	1	1	3	clock	312	45	15	6	4	4	attention	4	34			38		24					179	0	4	3	0	0	0	4	6	5	1	0	0	1	89	
6.6.1	mac	0	2023-10-12	15:51:15	1	1	1	experiment	1	1	3	ISI	330	45	15	6	4	4	attention	4	34			38		24					179	0	4	3	0	0	0	4	6	5	1	0	0	1	89	
6.6.1	mac	0	2023-10-12	15:51:15	1	1	1	experiment	1	1	3	feedback	1000	45	15	6	4	4	attention	4	34	234.8640000000000043201	3262	235		47	32.8999999999999985789	0.2933541706980565267	47	47	179	0	5	4	0	0	0	4	6	5	1	0	0	0	89	
6.6.1	mac	0	2023-10-12	15:51:15	1	1	1	experiment	1	1	3	ITI	410	45	15	6	5	5	attention	5	34			235		47					179	0	5	4	0	0	0	4	6	5	1	0	0	0	89	
6.6.1	mac	0	2023-10-12	15:51:15	1	1	1	experiment	1	1	3	preFreeze	550	45	15	6	5	5	attention	5	34			235		47					179	0	5	4	0	0	0	4	6	5	1	0	0	0	89	
6.6.1	mac	0	2023-10-12	15:51:15	1	1	1	experiment	1	1	3	clock	309	45	15	6	5	5	attention	5	38			235		47					179	0	5	4	0	0	0	4	6	5	1	0	0	0	89	
6.6.1	mac	0	2023-10-12	15:51:15	1	1	1	experiment	1	1	3	ISI	220	45	15	6	5	5	attention	5	38			235		47					179	0	5	4	0	0	0	4	6	5	1	0	0	0	89	
6.6.1	mac	0	2023-10-12	15:51:15	1	1	1	experiment	1	1	3	feedback	1000	45	15	6	5	5	attention	5	38	249.048000000000001819	3459	249		29	20.2999999999999971578	0.3684851118290063954	29	29	179	0	6	5	0	0	0	4	6	5	1	0	0	-1	89	
6.6.1	mac	0	2023-10-12	15:51:15	1	1	1	experiment	1	1	3	ITI	110	45	15	6	6	6	attention	6	38			249		29					179	0	6	5	0	0	0	4	6	5	1	0	0	-1	89	
6.6.1	mac	0	2023-10-12	15:51:15	1	1	1	experiment	1	1	3	preFreeze	660	45	15	6	6	6	attention	6	38			249		29					179	0	6	5	0	0	0	4	6	5	1	0	0	-1	89	
6.6.1	mac	0	2023-10-12	15:51:15	1	1	1	experiment	1	1	3	clock	318	45	15	6	6	6	attention	6	87			249		29					179	0	6	5	0	0	0	4	6	5	1	0	0	-1	89	
6.6.1	mac	0	2023-10-12	15:51:15	1	1	1	experiment	1	1	3	ISI	500	45	15	6	6	6	attention	6	87			249		29					179	0	6	5	0	0	0	4	6	5	1	0	0	-1	89	
6.6.1	mac	0	2023-10-12	15:51:15	1	1	1	experiment	1	1	3	feedback	1000	45	15	6	6	6	attention	6	87	66.096000000000003638	918	66		10	7	0.5584366104003126718	10	10	179	0	7	6	0	0	0	4	6	5	1	0	0	-2	89	
6.6.1	mac	0	2023-10-12	15:51:15	1	1	1	experiment	1	1	3	ITI	170	45	15	6	7	7	attention	7	87			66		10					179	0	7	6	0	0	0	4	6	5	1	0	0	-2	89	
6.6.1	mac	0	2023-10-12	15:51:15	1	1	1	experiment	1	1	3	preFreeze	580	45	15	6	7	7	attention	7	87			66		10					179	0	7	6	0	0	0	4	6	5	1	0	0	-2	89	
6.6.1	mac	0	2023-10-12	15:51:15	1	1	1	experiment	1	1	3	clock	242	45	15	6	7	7	attention	7	7			66		10					179	0	7	6	0	0	0	4	6	5	1	0	0	-2	89	
6.6.1	mac	0	2023-10-12	15:51:15	1	1	1	experiment	1	1	3	ISI	240	45	15	6	7	7	attention	7	7			66		10					179	0	7	6	0	0	0	4	6	5	1	0	0	-2	89	
6.6.1	mac	0	2023-10-12	15:51:15	1	1	1	experiment	1	1	3	feedback	1000	45	15	6	7	7	attention	7	7	132.6239999999999952252	1842	133		45	31.4999999999999964473	0.2272142102539572439	45	45	179	0	8	7	0	0	0	4	6	5	1	0	0	-3	89	
6.6.1	mac	0	2023-10-12	15:51:15	1	1	1	experiment	1	1	3	ITI	460	45	15	6	8	8	attention	8	7			133		45					179	0	8	7	0	0	0	4	6	5	1	0	0	-3	89	
6.6.1	mac	0	2023-10-12	15:51:15	1	1	1	experiment	1	1	3	preFreeze	540	45	15	6	8	8	attention	8	7			133		45					179	0	8	7	0	0	0	4	6	5	1	0	0	-3	89	
6.6.1	mac	0	2023-10-12	15:51:15	1	1	1	experiment	1	1	3	clock	269	45	15	6	8	8	attention	8	35			133		45					179	0	8	7	0	0	0	4	6	5	1	0	0	-3	89	
6.6.1	mac	0	2023-10-12	15:51:15	1	1	1	experiment	1	1	3	ISI	410	45	15	6	8	8	attention	8	35			133		45					179	0	8	7	0	0	0	4	6	5	1	0	0	-3	89	
6.6.1	mac	0	2023-10-12	15:51:15	1	1	1	experiment	1	1	3	feedback	1000	45	15	6	8	8	attention	8	35	235.3679999999999949978	3269	235		63	44.0999999999999943157	0.143172987071604696	63	63	179	0	9	8	0	0	0	4	6	5	1	0	0	-4	89	
6.6.1	mac	0	2023-10-12	15:51:15	1	1	1	experiment	1	1	3	ITI	420	45	15	6	9	9	attention	9	35			235		63					179	0	9	8	0	0	0	4	6	5	1	0	0	-4	89	
6.6.1	mac	0	2023-10-12	15:51:15	1	1	1	experiment	1	1	3	preFreeze	670	45	15	6	9	9	attention	9	35			235		63					179	0	9	8	0	0	0	4	6	5	1	0	0	-4	89	
6.6.1	mac	0	2023-10-12	15:51:15	1	1	1	experiment	1	1	3	clock	204	45	15	6	9	9	attention	9	90			235		63					179	0	9	8	0	0	0	4	6	5	1	0	0	-4	89	
6.6.1	mac	0	2023-10-12	15:51:15	1	1	1	experiment	1	1	3	ISI	440	45	15	6	9	9	attention	9	90			235		63					179	0	9	8	0	0	0	4	6	5	1	0	0	-4	89	
6.6.1	mac	0	2023-10-12	15:51:15	1	1	1	experiment	1	1	3	feedback	1000	45	15	6	9	9	attention	9	90	68.6880000000000023874	954	69		19	13.2999999999999989342	0.9773155455424719085	10	10	179	0	10	9	0	0	0	4	6	5	1	0	0	-5	89	
6.6.1	mac	0	2023-10-12	15:51:15	1	1	1	experiment	1	1	3	ITI	450	45	15	6	10	10	attention	10	90			69		19					179	0	10	9	0	0	0	4	6	5	1	0	0	-5	89	
6.6.1	mac	0	2023-10-12	15:51:15	1	1	1	experiment	1	1	3	preFreeze	510	45	15	6	10	10	attention	10	90			69		19					179	0	10	9	0	0	0	4	6	5	1	0	0	-5	89	
6.6.1	mac	0	2023-10-12	15:51:15	1	1	1	experiment	1	1	3	clock	312	45	15	6	10	10	attention	10	3			69		19					179	0	10	9	0	0	0	4	6	5	1	0	0	-5	89	
6.6.1	mac	0	2023-10-12	15:51:15	1	1	1	experiment	1	1	3	ISI	450	45	15	6	10	10	attention	10	3			69		19					179	0	10	9	0	0	0	4	6	5	1	0	0	-5	89	
6.6.1	mac	0	2023-10-12	15:51:15	1	1	1	experiment	1	1	3	feedback	1000	45	15	6	10	10	attention	10	3	123.2639999999999957936	1712	123		17	11.8999999999999985789	0.7949720050196563692	10	10	179	0	11	10	0	0	0	4	6	5	1	0	0	-6	89	
6.6.1	mac	0	2023-10-12	15:51:15	1	1	1	experiment	1	1	3	ITI	160	45	15	6	11	11	attention	11	3			123		17					179	0	11	10	0	0	0	4	6	5	1	0	0	-6	89	
6.6.1	mac	0	2023-10-12	15:51:15	1	1	1	experiment	1	1	3	preFreeze	690	45	15	6	11	11	attention	11	3			123		17					179	0	11	10	0	0	0	4	6	5	1	0	0	-6	89	
6.6.1	mac	0	2023-10-12	15:51:15	1	1	1	experiment	1	1	3	clock	222	45	15	6	11	11	attention	11	89			123		17					179	0	11	10	0	0	0	4	6	5	1	0	0	-6	89	
6.6.1	mac	0	2023-10-12	15:51:15	1	1	1	experiment	1	1	3	ISI	370	45	15	6	11	11	attention	11	89			123		17					179	0	11	10	0	0	0	4	6	5	1	0	0	-6	89	
6.6.1	mac	0	2023-10-12	15:51:15	1	1	1	experiment	1	1	3	feedback	1000	45	15	6	11	11	attention	11	89	66.3840000000000003411	922	66		32	22.3999999999999985789	0.9896509342337145299	10	10	179	0	12	11	0	0	0	4	6	5	1	0	0	-7	89	
6.6.1	mac	0	2023-10-12	15:51:15	1	1	1	experiment	1	1	3	ITI	270	45	15	6	12	12	attention	12	89			66		32					179	0	12	11	0	0	0	4	6	5	1	0	0	-7	89	
6.6.1	mac	0	2023-10-12	15:51:15	1	1	1	experiment	1	1	3	preFreeze	570	45	15	6	12	12	attention	12	89			66		32					179	0	12	11	0	0	0	4	6	5	1	0	0	-7	89	
6.6.1	mac	0	2023-10-12	15:51:15	1	1	1	experiment	1	1	3	clock	233	45	15	6	12	12	attention	12	78			66		32					179	0	12	11	0	0	0	4	6	5	1	0	0	-7	89	
6.6.1	mac	0	2023-10-12	15:51:15	1	1	1	experiment	1	1	3	ISI	600	45	15	6	12	12	attention	12	78			66		32					179	0	12	11	0	0	0	4	6	5	1	0	0	-7	89	
6.6.1	mac	0	2023-10-12	15:51:15	1	1	1	experiment	1	1	3	feedback	1000	45	15	6	12	12	attention	12	78	27.5760000000000005116	383	28		36	25.1999999999999992895	0.7295977148994797767	10	10	179	0	13	12	0	0	0	4	6	5	1	0	0	-8	89	
6.6.1	mac	0	2023-10-12	15:51:15	1	1	1	experiment	1	1	3	ITI	360	45	15	6	13	13	attention	13	78			28		36					179	0	13	12	0	0	0	4	6	5	1	0	0	-8	89	
6.6.1	mac	0	2023-10-12	15:51:15	1	1	1	experiment	1	1	3	preFreeze	700	45	15	6	13	13	attention	13	78			28		36					179	0	13	12	0	0	0	4	6	5	1	0	0	-8	89	
6.6.1	mac	0	2023-10-12	15:51:15	1	1	1	experiment	1	1	3	clock	322	45	15	6	13	13	attention	13	51			28		36					179	0	13	12	0	0	0	4	6	5	1	0	0	-8	89	
6.6.1	mac	0	2023-10-12	15:51:15	1	1	1	experiment	1	1	3	ISI	290	45	15	6	13	13	attention	13	51			28		36					179	0	13	12	0	0	0	4	6	5	1	0	0	-8	89	
6.6.1	mac	0	2023-10-12	15:51:15	1	1	1	experiment	1	1	3	feedback	1000	45	15	6	13	13	attention	13	51	296.7839999999999918145	4122	297		6	4.1999999999999992895	0.3398824947280535969	6	10	179	0	14	13	0	0	0	4	6	5	1	0	0	-9	89	
6.6.1	mac	0	2023-10-12	15:51:15	1	1	1	experiment	1	1	3	ITI	100	45	15	6	14	14	attention	14	51			297		6					179	0	14	13	0	0	0	4	6	5	1	0	0	-9	89	
6.6.1	mac	0	2023-10-12	15:51:15	1	1	1	experiment	1	1	3	preFreeze	620	45	15	6	14	14	attention	14	51			297		6					179	0	14	13	0	0	0	4	6	5	1	0	0	-9	89	
6.6.1	mac	0	2023-10-12	15:51:15	1	1	1	experiment	1	1	3	clock	210	45	15	6	14	14	attention	14	37			297		6					179	0	14	13	0	0	0	4	6	5	1	0	0	-9	89	
6.6.1	mac	0	2023-10-12	15:51:15	1	1	1	experiment	1	1	3	ISI	230	45	15	6	14	14	attention	14	37			297		6					179	0	14	13	0	0	0	4	6	5	1	0	0	-9	89	
6.6.1	mac	0	2023-10-12	15:51:15	1	1	1	experiment	1	1	3	feedback	1000	45	15	6	14	14	attention	14	37	238.3199999999999931788	3310	238		78	54.5999999999999943157	0.1516105139515387112	78	78	179	0	15	14	0	0	0	4	6	5	1	0	0	-10	89	
6.6.1	mac	0	2023-10-12	15:51:15	1	1	1	experiment	1	1	3	ITI	150	45	15	6	15	15	attention	15	37			238		78					179	0	15	14	0	0	0	4	6	5	1	0	0	-10	89	
6.6.1	mac	0	2023-10-12	15:51:15	1	1	1	experiment	1	1	3	preFreeze	500	45	15	6	15	15	attention	15	37			238		78					179	0	15	14	0	0	0	4	6	5	1	0	0	-10	89	
6.6.1	mac	0	2023-10-12	15:51:15	1	1	1	experiment	1	1	3	clock	226	45	15	6	15	15	attention	15	15			238		78					179	0	15	14	0	0	0	4	6	5	1	0	0	-10	89	
6.6.1	mac	0	2023-10-12	15:51:15	1	1	1	experiment	1	1	3	ISI	200	45	15	6	15	15	attention	15	15			238		78					179	0	15	14	0	0	0	4	6	5	1	0	0	-10	89	
6.6.1	mac	0	2023-10-12	15:51:15	1	1	1	experiment	1	1	3	feedback	1000	45	15	6	15	15	attention	15	15	160.2719999999999913598	2226	160		86	60.1999999999999957367	0.0382276340476767271	86	86	179	0	16	15	0	0	0	4	6	5	1	0	0	-11	89	
6.6.1	mac	0	2023-10-12	15:51:15	1	1	1	experiment	2	2	3	ITI	490	45	15	6	16	1	no_erasure	1	15			160		86					179		1	0	0	0		4	6	5	0	1	0	1	89	
6.6.1	mac	0	2023-10-12	15:51:15	1	1	1	experiment	2	2	3	preFreeze	680	45	15	6	16	1	no_erasure	1	15			160		86					179		1	0	0	0		4	6	5	0	1	0	1	89	
6.6.1	mac	0	2023-10-12	15:51:15	1	1	1	experiment	2	2	3	clock	343	45	15	6	16	1	no_erasure	1	53			160		86					179		1	0	0	0		4	6	5	0	1	0	1	89	
6.6.1	mac	0	2023-10-12	15:51:15	1	1	1	experiment	2	2	3	ISI	250	45	15	6	16	1	no_erasure	1	53			160		86					179		1	0	0	0		4	6	5	0	1	0	1	89	
6.6.1	mac	0	2023-10-12	15:51:15	1	1	1	experiment	2	2	3	feedback	1000	45	15	6	16	1	no_erasure	1	53	305.4959999999999809006	4243	305		3	2.0999999999999996447	0.1874451914772962136	3	10	179		2	0	0	1		4	6	5	0	1	0	0	89	
6.6.1	mac	0	2023-10-12	15:51:15	1	1	1	experiment	2	2	3	ITI	310	45	15	6	17	2	no_erasure	2	53			305		3					179		2	0	0	1		4	6	5	1	0	1	5	89	
6.6.1	mac	0	2023-10-12	15:51:15	1	1	1	experiment	2	2	3	preFreeze	610	45	15	6	17	2	no_erasure	2	53			305		3					179		2	0	0	1		4	6	5	1	0	1	5	89	
6.6.1	mac	0	2023-10-12	15:51:15	1	1	1	experiment	2	2	3	clock	199	45	15	6	17	2	no_erasure	2	4			305		3					179		2	0	0	1		4	6	5	1	0	1	5	89	
6.6.1	mac	0	2023-10-12	15:51:15	1	1	1	experiment	2	2	3	ISI	490	45	15	6	17	2	no_erasure	2	4			305		3					179		2	0	0	1		4	6	5	1	0	1	5	89	
6.6.1	mac	0	2023-10-12	15:51:15	1	1	1	experiment	2	2	3	feedback	1000	45	15	6	17	2	no_erasure	2	4	118.7279999999999944293	1649	119		34	23.7999999999999971578	0.1169516581848616815	34	34	179		3	0	0	2		4	6	5	1	0	0	4	89	
6.6.1	mac	0	2023-10-12	15:51:15	1	1	1	experiment	2	2	3	ITI	120	45	15	6	18	3	no_erasure	3	4			119		34					179		3	0	0	2		4	6	5	1	0	0	4	89	
6.6.1	mac	0	2023-10-12	15:51:15	1	1	1	experiment	2	2	3	preFreeze	590	45	15	6	18	3	no_erasure	3	4			119		34					179		3	0	0	2		4	6	5	1	0	0	4	89	
6.6.1	mac	0	2023-10-12	15:51:15	1	1	1	experiment	2	2	3	clock	285	45	15	6	18	3	no_erasure	3	28			119		34					179		3	0	0	2		4	6	5	1	0	0	4	89	
6.6.1	mac	0	2023-10-12	15:51:15	1	1	1	experiment	2	2	3	ISI	420	45	15	6	18	3	no_erasure	3	28			119		34					179		3	0	0	2		4	6	5	1	0	0	4	89	
6.6.1	mac	0	2023-10-12	15:51:15	1	1	1	experiment	2	2	3	feedback	1000	45	15	6	18	3	no_erasure	3	28	211.3199999999999931788	2935	211		108	75.5999999999999943157	0.6526534936047749813	108	108	179		4	0	0	3		4	6	5	1	0	0	3	89	
6.6.1	mac	0	2023-10-12	15:51:15	1	1	1	experiment	2	2	3	ITI	230	45	15	6	19	4	no_erasure	4	28			211		108					179		4	0	0	3		4	6	5	1	0	0	3	89	
6.6.1	mac	0	2023-10-12	15:51:15	1	1	1	experiment	2	2	3	preFreeze	630	45	15	6	19	4	no_erasure	4	28			211		108					179		4	0	0	3		4	6	5	1	0	0	3	89	
6.6.1	mac	0	2023-10-12	15:51:15	1	1	1	experiment	2	2	3	clock	306	45	15	6	19	4	no_erasure	4	72			211		108					179		4	0	0	3		4	6	5	1	0	0	3	89	
6.6.1	mac	0	2023-10-12	15:51:15	1	1	1	experiment	2	2	3	ISI	320	45	15	6	19	4	no_erasure	4	72			211		108					179		4	0	0	3		4	6	5	1	0	0	3	89	
6.6.1	mac	0	2023-10-12	15:51:15	1	1	1	experiment	2	2	3	feedback	1000	45	15	6	19	4	no_erasure	4	72	11.2319999999999993179	156	11		41	28.6999999999999992895	0.2557379438671604777	41	41	179		5	0	0	4		4	6	5	1	0	0	2	89	
6.6.1	mac	0	2023-10-12	15:51:15	1	1	1	experiment	2	2	3	ITI	430	45	15	6	20	5	no_erasure	5	72			11		41					179		5	0	0	4		4	6	5	1	0	0	2	89	
6.6.1	mac	0	2023-10-12	15:51:15	1	1	1	experiment	2	2	3	preFreeze	333	45	15	6	20	5	no_erasure	5	72			11		41					179		5	0	0	4		4	6	5	1	0	0	2	89	
