build	computer.platform	computer.touch	date	time	subject	group	sessionid	blockcode	blocknum	block	n_blocks	trialcode	latency	n_trials	block_length	best	lower_quartile	upper_quartile	list.curr_values_temp.median	erasure_index	erasure_RT	erasure_value	erasure_degrees	trial	run_trial	block_type	list.triallist.currentindex	startPos	pos_shifted	rt_shifted	rt_index	list.curr_values.currentvalue	mag	ev	rng	inc	inc_rg	stim_center_deg	choose_stim	run_trial_dum	n_attention	n_erasure	n_no_erasure	n_clicks	require_attention	require_no_erasure	require_erasure	timeouts_remain	timeout_block	generate_new_erasure	n_curr_block	list.degrees_att.currentvalue	list.degrees_era.currentvalue
6.6.1	mac	0	2023-10-16	15:23:14	1	1	1	experiment	1	1	3	ITI	410	45	15	6	11	75.5	32	23	23	37		1	1	no_erasure	1	0					0							1	0	0	0		4	6	5	1	0	1	6	0	22
6.6.1	mac	0	2023-10-16	15:23:14	1	1	1	experiment	1	1	3	preFreeze	580	45	15	6	11	75.5	32	23	23	37		1	1	no_erasure	1	0					0							1	0	0	0		4	6	5	1	0	1	6	0	22
6.6.1	mac	0	2023-10-16	15:23:14	1	1	1	experiment	1	1	3	clock	495	45	15	6	11	75.5	32	23	23	37		1	1	no_erasure	1	21					0							1	0	0	0		4	6	5	1	0	1	6	0	22
6.6.1	mac	0	2023-10-16	15:23:14	1	1	1	experiment	1	1	3	ISI	280	45	15	6	11	75.5	32	23	23	37		1	1	no_erasure	1	21					0							1	0	0	0		4	6	5	1	0	1	6	0	22
6.6.1	mac	0	2023-10-16	15:23:14	1	1	1	experiment	1	1	3	feedback	1000	45	15	6	11	75.5	32	23	23	37		1	1	no_erasure	1	21	201.2400000000000090949	2795	201		116	81.1999999999999886313	0.3054992061353985489	116	116			2	0	0	1		4	6	5	1	0	0	5	0	22
6.6.1	mac	0	2023-10-16	15:23:14	1	1	1	experiment	1	1	3	ITI	370	45	15	6	11	75.5	32	23	23	37		2	2	no_erasure	2	21			201		116							2	0	0	1		4	6	5	1	0	0	5	0	22
6.6.1	mac	0	2023-10-16	15:23:14	1	1	1	experiment	1	1	3	preFreeze	590	45	15	6	11	75.5	32	23	23	37		2	2	no_erasure	2	21			201		116							2	0	0	1		4	6	5	1	0	0	5	0	22
6.6.1	mac	0	2023-10-16	15:23:14	1	1	1	experiment	1	1	3	clock	108	45	15	6	11	75.5	32	23	23	37		2	2	no_erasure	2	34			201		116							2	0	0	1		4	6	5	1	0	0	5	0	22
6.6.1	mac	0	2023-10-16	15:23:14	1	1	1	experiment	1	1	3	ISI	200	45	15	6	11	75.5	32	23	23	37		2	2	no_erasure	2	34			201		116							2	0	0	1		4	6	5	1	0	0	5	0	22
6.6.1	mac	0	2023-10-16	15:23:14	1	1	1	experiment	1	1	3	feedback	1000	45	15	6	11	75.5	32	23	23	37		2	2	no_erasure	2	34	220.1759999999999877218	3058	220		68	47.5999999999999943157	0.8322693979908407647	10	10			3	0	0	2		4	6	5	1	0	0	4	0	22
6.6.1	mac	0	2023-10-16	15:23:14	1	1	1	experiment	1	1	3	ITI	290	45	15	6	11	75.5	32	23	23	37		3	3	no_erasure	3	34			220		68							3	0	0	2		4	6	5	1	0	0	4	0	22
6.6.1	mac	0	2023-10-16	15:23:14	1	1	1	experiment	1	1	3	preFreeze	700	45	15	6	11	75.5	32	23	23	37		3	3	no_erasure	3	34			220		68							3	0	0	2		4	6	5	1	0	0	4	0	22
6.6.1	mac	0	2023-10-16	15:23:14	1	1	1	experiment	1	1	3	clock	449	45	15	6	11	75.5	32	23	23	37		3	3	no_erasure	3	48			220		68							3	0	0	2		4	6	5	1	0	0	4	0	22
6.6.1	mac	0	2023-10-16	15:23:14	1	1	1	experiment	1	1	3	ISI	460	45	15	6	11	75.5	32	23	23	37		3	3	no_erasure	3	48			220		68							3	0	0	2		4	6	5	1	0	0	4	0	22
6.6.1	mac	0	2023-10-16	15:23:14	1	1	1	experiment	1	1	3	feedback	1000	45	15	6	11	75.5	32	23	23	37		3	3	no_erasure	3	48	295.1279999999999859028	4099	295		6	4.1999999999999992895	0.7175363115308658335	10	10			4	0	0	3		4	6	5	1	0	0	3	0	22
6.6.1	mac	0	2023-10-16	15:23:14	1	1	1	experiment	1	1	3	ITI	240	45	15	6	11	75.5	32	23	23	37		4	4	no_erasure	4	48			295		6							4	0	0	3		4	6	5	1	0	0	3	0	22
6.6.1	mac	0	2023-10-16	15:23:14	1	1	1	experiment	1	1	3	preFreeze	510	45	15	6	11	75.5	32	23	23	37		4	4	no_erasure	4	48			295		6							4	0	0	3		4	6	5	1	0	0	3	0	22
6.6.1	mac	0	2023-10-16	15:23:14	1	1	1	experiment	1	1	3	clock	479	45	15	6	11	75.5	32	23	23	37		4	4	no_erasure	4	52			295		6							4	0	0	3		4	6	5	1	0	0	3	0	22
6.6.1	mac	0	2023-10-16	15:23:14	1	1	1	experiment	1	1	3	ISI	570	45	15	6	11	75.5	32	23	23	37		4	4	no_erasure	4	52			295		6							4	0	0	3		4	6	5	1	0	0	3	0	22
6.6.1	mac	0	2023-10-16	15:23:14	1	1	1	experiment	1	1	3	feedback	1000	45	15	6	11	75.5	32	23	23	37		4	4	no_erasure	4	52	311.6879999999999881766	4329	312		10	7	0.2182187946090052844	10	10			5	0	0	4		4	6	5	1	0	0	2	0	22
6.6.1	mac	0	2023-10-16	15:23:14	1	1	1	experiment	1	1	3	ITI	390	45	15	6	11	75.5	32	23	23	37		5	5	no_erasure	5	52			312		10							5	0	0	4		4	6	5	1	0	0	2	0	22
6.6.1	mac	0	2023-10-16	15:23:14	1	1	1	experiment	1	1	3	preFreeze	680	45	15	6	11	75.5	32	23	23	37		5	5	no_erasure	5	52			312		10							5	0	0	4		4	6	5	1	0	0	2	0	22
6.6.1	mac	0	2023-10-16	15:23:14	1	1	1	experiment	1	1	3	clock	565	45	15	6	11	75.5	32	23	23	37		5	5	no_erasure	5	13			312		10							5	0	0	4		4	6	5	1	0	0	2	0	22
6.6.1	mac	0	2023-10-16	15:23:14	1	1	1	experiment	1	1	3	ISI	230	45	15	6	11	75.5	32	23	23	37		5	5	no_erasure	5	13			312		10							5	0	0	4		4	6	5	1	0	0	2	0	22
6.6.1	mac	0	2023-10-16	15:23:14	1	1	1	experiment	1	1	3	feedback	1000	45	15	6	11	75.5	32	23	23	37		5	5	no_erasure	5	13	177.4799999999999897682	2465	177		161	112.6999999999999886313	0.7359834177736154226	10	10			6	0	0	5		4	6	5	1	0	0	1	0	22
6.6.1	mac	0	2023-10-16	15:23:14	1	1	1	experiment	1	1	3	ITI	160	45	15	6	11	75.5	32	23	23	37		6	6	no_erasure	6	13			177		161							6	0	0	5		4	6	5	1	0	0	1	0	22
6.6.1	mac	0	2023-10-16	15:23:14	1	1	1	experiment	1	1	3	preFreeze	650	45	15	6	11	75.5	32	23	23	37		6	6	no_erasure	6	13			177		161							6	0	0	5		4	6	5	1	0	0	1	0	22
6.6.1	mac	0	2023-10-16	15:23:14	1	1	1	experiment	1	1	3	clock	454	45	15	6	11	75.5	32	23	23	37		6	6	no_erasure	6	91			177		161							6	0	0	5		4	6	5	1	0	0	1	0	22
6.6.1	mac	0	2023-10-16	15:23:14	1	1	1	experiment	1	1	3	ISI	540	45	15	6	11	75.5	32	23	23	37		6	6	no_erasure	6	91			177		161							6	0	0	5		4	6	5	1	0	0	1	0	22
6.6.1	mac	0	2023-10-16	15:23:14	1	1	1	experiment	1	1	3	feedback	1000	45	15	6	11	75.5	32	23	23	37		6	6	no_erasure	6	91	90.2879999999999967031	1254	90		6	4.1999999999999992895	0.4014543954752046728	6	10			7	0	0	6		4	6	5	1	0	0	0	0	22
6.6.1	mac	0	2023-10-16	15:23:14	1	1	1	experiment	1	1	3	ITI	500	45	15	6	11	75.5	32	23	23	37		7	7	attention	7	91			90		6					90	0	7	0	0	6	0	4	6	5	1	0	1	4	0	22
6.6.1	mac	0	2023-10-16	15:23:14	1	1	1	experiment	1	1	3	preFreeze	520	45	15	6	11	75.5	32	23	23	37		7	7	attention	7	91			90		6					90	0	7	0	0	6	0	4	6	5	1	0	1	4	0	22
6.6.1	mac	0	2023-10-16	15:23:14	1	1	1	experiment	1	1	3	clock	1118	45	15	6	11	75.5	32	23	23	37		7	7	attention	7	77			90		6					90	0	7	0	0	6	0	4	6	5	1	0	1	4	0	22
6.6.1	mac	0	2023-10-16	15:23:14	1	1	1	experiment	1	1	3	ISI	410	45	15	6	11	75.5	32	23	23	37		7	7	attention	7	77			90		6					90	0	7	0	0	6	0	4	6	5	1	0	1	4	0	22
6.6.1	mac	0	2023-10-16	15:23:14	1	1	1	experiment	1	1	3	feedback	1000	45	15	6	11	75.5	32	23	23	37		7	7	attention	7	77	87.6959999999999979536	1218	88		5	3.5	0.4816992451627038485	5	10	90	1	8	1	0	6	1	4	6	5	1	0	0	3	0	22
6.6.1	mac	0	2023-10-16	15:23:14	1	1	1	experiment	1	1	3	ITI	460	45	15	6	11	75.5	32	23	23	37		8	8	attention	8	77			88		5					90	1	8	1	0	6	1	4	6	5	1	0	0	3	0	22
6.6.1	mac	0	2023-10-16	15:23:14	1	1	1	experiment	1	1	3	preFreeze	690	45	15	6	11	75.5	32	23	23	37		8	8	attention	8	77			88		5					90	1	8	1	0	6	1	4	6	5	1	0	0	3	0	22
6.6.1	mac	0	2023-10-16	15:23:14	1	1	1	experiment	1	1	3	clock	679	45	15	6	11	75.5	32	23	23	37		8	8	attention	8	86			88		5					90	1	8	1	0	6	1	4	6	5	1	0	0	3	0	22
6.6.1	mac	0	2023-10-16	15:23:14	1	1	1	experiment	1	1	3	ISI	450	45	15	6	11	75.5	32	23	23	37		8	8	attention	8	86			88		5					90	1	8	1	0	6	1	4	6	5	1	0	0	3	0	22
6.6.1	mac	0	2023-10-16	15:23:14	1	1	1	experiment	1	1	3	feedback	1000	45	15	6	11	75.5	32	23	23	37		8	8	attention	8	86	88.4879999999999995453	1229	88		4	2.7999999999999998224	0.9776080683752913503	10	10	90	1	9	2	0	6	2	4	6	5	1	0	0	2	0	22
6.6.1	mac	0	2023-10-16	15:23:14	1	1	1	experiment	1	1	3	ITI	490	45	15	6	11	75.5	32	23	23	37		9	9	no_erasure	9	86			88		4					90		9	2	0	6		4	6	5	0	1	0	1	0	22
6.6.1	mac	0	2023-10-16	15:23:14	1	1	1	experiment	1	1	3	preFreeze	610	45	15	6	11	75.5	32	23	23	37		9	9	no_erasure	9	86			88		4					90		9	2	0	6		4	6	5	0	1	0	1	0	22
6.6.1	mac	0	2023-10-16	15:23:14	1	1	1	experiment	1	1	3	clock	398	45	15	6	11	75.5	32	23	23	37		9	9	no_erasure	9	87			88		4					90		9	2	0	6		4	6	5	0	1	0	1	0	22
6.6.1	mac	0	2023-10-16	15:23:14	1	1	1	experiment	1	1	3	ISI	560	45	15	6	11	75.5	32	23	23	37		9	9	no_erasure	9	87			88		4					90		9	2	0	6		4	6	5	0	1	0	1	0	22
6.6.1	mac	0	2023-10-16	15:23:14	1	1	1	experiment	1	1	3	feedback	1000	45	15	6	11	75.5	32	23	23	37		9	9	no_erasure	9	87	71.855999999999994543	998	72		16	11.1999999999999992895	0.2660591554050471541	16	16	90		10	2	0	7		4	6	5	0	1	0	0	0	22
6.6.1	mac	0	2023-10-16	15:23:14	1	1	1	experiment	1	1	3	ITI	450	45	15	6	11	75.5	32	23	23	37		10	10	erasure	10	87			72		16					112	0	10	2	0	7	0	4	6	5	1	0	1	5	0	22
6.6.1	mac	0	2023-10-16	15:23:14	1	1	1	experiment	1	1	3	preFreeze	540	45	15	6	11	75.5	32	23	23	37		10	10	erasure	10	87			72		16					112	0	10	2	0	7	0	4	6	5	1	0	1	5	0	22
6.6.1	mac	0	2023-10-16	15:23:14	1	1	1	experiment	1	1	3	clock	395	45	15	6	11	75.5	32	23	23	37		10	10	erasure	10	2			72		16					112	0	10	2	0	7	0	4	6	5	1	0	1	5	0	22
6.6.1	mac	0	2023-10-16	15:23:14	1	1	1	experiment	1	1	3	ISI	330	45	15	6	11	75.5	32	23	23	37		10	10	erasure	10	2			72		16					112	0	10	2	0	7	0	4	6	5	1	0	1	5	0	22
6.6.1	mac	0	2023-10-16	15:23:14	1	1	1	experiment	1	1	3	feedback	1000	45	15	6	11	75.5	32	23	23	37		10	10	erasure	10	2	125.6400000000000005684	1745	126		21	14.6999999999999992895	0.1870569268211389191	21	21	112	1	11	2	1	7	1	4	6	5	1	0	0	4	0	22
6.6.1	mac	0	2023-10-16	15:23:14	1	1	1	experiment	1	1	3	ITI	340	45	15	6	11	75.5	32	23	23	37		11	11	erasure	11	2			126		21					112	1	11	2	1	7	1	4	6	5	1	0	0	4	0	22
6.6.1	mac	0	2023-10-16	15:23:14	1	1	1	experiment	1	1	3	preFreeze	620	45	15	6	11	75.5	32	23	23	37		11	11	erasure	11	2			126		21					112	1	11	2	1	7	1	4	6	5	1	0	0	4	0	22
6.6.1	mac	0	2023-10-16	15:23:14	1	1	1	experiment	1	1	3	clock	868	45	15	6	11	75.5	32	23	23	37		11	11	erasure	11	87			126		21					112	1	11	2	1	7	1	4	6	5	1	0	0	4	0	22
6.6.1	mac	0	2023-10-16	15:23:14	1	1	1	experiment	1	1	3	ISI	480	45	15	6	11	75.5	32	23	23	37		11	11	erasure	11	87			126		21					112	1	11	2	1	7	1	4	6	5	1	0	0	4	0	22
6.6.1	mac	0	2023-10-16	15:23:14	1	1	1	experiment	1	1	3	feedback	1000	45	15	6	11	75.5	32	23	23	37		11	11	erasure	11	87	105.6959999999999979536	1468	106		4	2.7999999999999998224	0.1395899867963953933	4	10	112	1	12	2	2	7	2	4	6	5	1	0	0	3	0	22
6.6.1	mac	0	2023-10-16	15:23:14	1	1	1	experiment	1	1	3	ITI	360	45	15	6	11	75.5	32	23	23	37		12	12	no_erasure	12	87			106		4					112		12	2	2	7		4	6	5	0	1	0	1	0	22
6.6.1	mac	0	2023-10-16	15:23:14	1	1	1	experiment	1	1	3	preFreeze	640	45	15	6	11	75.5	32	23	23	37		12	12	no_erasure	12	87			106		4					112		12	2	2	7		4	6	5	0	1	0	1	0	22
6.6.1	mac	0	2023-10-16	15:23:14	1	1	1	experiment	1	1	3	clock	490	45	15	6	11	75.5	32	23	23	37		12	12	no_erasure	12	70			106		4					112		12	2	2	7		4	6	5	0	1	0	1	0	22
6.6.1	mac	0	2023-10-16	15:23:14	1	1	1	experiment	1	1	3	ISI	370	45	15	6	11	75.5	32	23	23	37		12	12	no_erasure	12	70			106		4					112		12	2	2	7		4	6	5	0	1	0	1	0	22
6.6.1	mac	0	2023-10-16	15:23:14	1	1	1	experiment	1	1	3	feedback	1000	45	15	6	11	75.5	32	23	23	37		12	12	no_erasure	12	70	17.2800000000000011369	240	17		28	19.5999999999999978684	0.1580391221582049255	28	28	112		13	2	2	8		4	6	5	0	1	0	0	0	22
6.6.1	mac	0	2023-10-16	15:23:14	1	1	1	experiment	1	1	3	ITI	180	45	15	6	11	75.5	32	23	23	37		13	13	erasure	13	70			17		28					112	0	13	2	2	8	0	4	6	5	1	0	1	3	0	22
6.6.1	mac	0	2023-10-16	15:23:14	1	1	1	experiment	1	1	3	preFreeze	570	45	15	6	11	75.5	32	23	23	37		13	13	erasure	13	70			17		28					112	0	13	2	2	8	0	4	6	5	1	0	1	3	0	22
6.6.1	mac	0	2023-10-16	15:23:14	1	1	1	experiment	1	1	3	clock	539	45	15	6	11	75.5	32	23	23	37		13	13	erasure	13	26			17		28					112	0	13	2	2	8	0	4	6	5	1	0	1	3	0	22
6.6.1	mac	0	2023-10-16	15:23:14	1	1	1	experiment	1	1	3	ISI	590	45	15	6	11	75.5	32	23	23	37		13	13	erasure	13	26			17		28					112	0	13	2	2	8	0	4	6	5	1	0	1	3	0	22
6.6.1	mac	0	2023-10-16	15:23:14	1	1	1	experiment	1	1	3	feedback	1000	45	15	6	11	75.5	32	23	23	37		13	13	erasure	13	26	222.4079999999999870397	3089	222		149	104.2999999999999971578	0.5004233022919910567	149	149	112	0	14	2	3	8	0	4	6	5	1	0	0	2	0	22
6.6.1	mac	0	2023-10-16	15:23:14	1	1	1	experiment	1	1	3	ITI	120	45	15	6	11	75.5	32	23	23	37		14	14	erasure	14	26			222		149					112	0	14	2	3	8	0	4	6	5	1	0	0	2	0	22
6.6.1	mac	0	2023-10-16	15:23:14	1	1	1	experiment	1	1	3	preFreeze	600	45	15	6	11	75.5	32	23	23	37		14	14	erasure	14	26			222		149					112	0	14	2	3	8	0	4	6	5	1	0	0	2	0	22
6.6.1	mac	0	2023-10-16	15:23:14	1	1	1	experiment	1	1	3	clock	396	45	15	6	11	75.5	32	23	23	37		14	14	erasure	14	69			222		149					112	0	14	2	3	8	0	4	6	5	1	0	0	2	0	22
6.6.1	mac	0	2023-10-16	15:23:14	1	1	1	experiment	1	1	3	ISI	220	45	15	6	11	75.5	32	23	23	37		14	14	erasure	14	69			222		149					112	0	14	2	3	8	0	4	6	5	1	0	0	2	0	22
6.6.1	mac	0	2023-10-16	15:23:14	1	1	1	experiment	1	1	3	feedback	1000	45	15	6	11	75.5	32	23	23	37		14	14	erasure	14	69	6.9119999999999999218	96	7		34	23.7999999999999971578	0.5234114584800347858	34	34	112	0	15	2	4	8	0	4	6	5	1	0	0	1	0	22
6.6.1	mac	0	2023-10-16	15:23:14	1	1	1	experiment	1	1	3	ITI	230	45	15	6	11	75.5	32	23	23	37		15	15	erasure	15	69			7		34					112	0	15	2	4	8	0	4	6	5	1	0	0	1	0	22
6.6.1	mac	0	2023-10-16	15:23:14	1	1	1	experiment	1	1	3	preFreeze	530	45	15	6	11	75.5	32	23	23	37		15	15	erasure	15	69			7		34					112	0	15	2	4	8	0	4	6	5	1	0	0	1	0	22
6.6.1	mac	0	2023-10-16	15:23:14	1	1	1	experiment	1	1	3	clock	383	45	15	6	11	75.5	32	23	23	37		15	15	erasure	15	61			7		34					112	0	15	2	4	8	0	4	6	5	1	0	0	1	0	22
6.6.1	mac	0	2023-10-16	15:23:14	1	1	1	experiment	1	1	3	ISI	420	45	15	6	11	75.5	32	23	23	37		15	15	erasure	15	61			7		34					112	0	15	2	4	8	0	4	6	5	1	0	0	1	0	22
6.6.1	mac	0	2023-10-16	15:23:14	1	1	1	experiment	1	1	3	feedback	1000	45	15	6	11	75.5	32	23	23	37		15	15	erasure	15	61	337.1759999999999877218	4683	337		11	7.6999999999999992895	0.1025852046680136576	11	11	112	0	16	2	5	8	0	4	6	5	1	0	0	0	0	22
6.6.1	mac	0	2023-10-16	15:23:14	1	1	1	experiment	2	2	3	ITI	350	45	15	6	11	75.5	32	161	23	37		16	1	no_erasure	1	61			337		11					112		1	0	0	0		4	6	5	0	1	0	1	0	22
6.6.1	mac	0	2023-10-16	15:23:14	1	1	1	experiment	2	2	3	preFreeze	560	45	15	6	11	75.5	32	161	23	37		16	1	no_erasure	1	61			337		11					112		1	0	0	0		4	6	5	0	1	0	1	0	22
6.6.1	mac	0	2023-10-16	15:23:14	1	1	1	experiment	2	2	3	clock	6500	45	15	6	11	75.5	32	161	23	37		16	1	no_erasure	1	1			337		11					112		1	0	0	0		4	6	5	0	1	0	1	0	22
6.6.1	mac	0	2023-10-16	15:23:14	1	1	1	experiment	2	2	3	ISI	520	45	15	6	11	75.5	32	161	23	37		16	1	no_erasure	1	1			337		11					112		1	0	0	0		4	6	5	0	1	0	1	0	22
6.6.1	mac	0	2023-10-16	15:23:14	1	1	1	experiment	2	2	3	feedback	1000	45	15	6	11	75.5	32	161	23	37		16	1	no_erasure	1	1	201.5999999999999943157	2800	202		163	114.0999999999999943157	0.7367603063436132249	0		112		2	0	0	1		4	6	5	0	1	0	0	0	22
6.6.1	mac	0	2023-10-16	15:23:14	1	1	1	experiment	2	2	3	ITI	150	45	15	6	11	75.5	32	161	23	37		17	2	erasure	2	1			202		163					112	0	2	0	0	1	0	4	6	5	1	0	1	5	0	22
6.6.1	mac	0	2023-10-16	15:23:14	1	1	1	experiment	2	2	3	preFreeze	630	45	15	6	11	75.5	32	161	23	37		17	2	erasure	2	1			202		163					112	0	2	0	0	1	0	4	6	5	1	0	1	5	0	22
6.6.1	mac	0	2023-10-16	15:23:14	1	1	1	experiment	2	2	3	clock	3386	45	15	6	11	75.5	32	161	23	37		17	2	erasure	2	16			202		163					112	0	2	0	0	1	0	4	6	5	1	0	1	5	0	22
6.6.1	mac	0	2023-10-16	15:23:14	1	1	1	experiment	2	2	3	ISI	400	45	15	6	11	75.5	32	161	23	37		17	2	erasure	2	16			202		163					112	0	2	0	0	1	0	4	6	5	1	0	1	5	0	22
6.6.1	mac	0	2023-10-16	15:23:14	1	1	1	experiment	2	2	3	feedback	1000	45	15	6	11	75.5	32	161	23	37		17	2	erasure	2	16	31.39199999999999946	436	31		39	27.2999999999999971578	0.929175306327914674	10	10	112	0	3	0	1	1	0	4	6	5	1	0	0	4	0	22
6.6.1	mac	0	2023-10-16	15:23:14	1	1	1	experiment	2	2	3	ITI	310	45	15	6	11	75.5	32	161	23	37		18	3	erasure	3	16			31		39					112	0	3	0	1	1	0	4	6	5	1	0	0	4	0	22
6.6.1	mac	0	2023-10-16	15:23:14	1	1	1	experiment	2	2	3	preFreeze	670	45	15	6	11	75.5	32	161	23	37		18	3	erasure	3	16			31		39					112	0	3	0	1	1	0	4	6	5	1	0	0	4	0	22
6.6.1	mac	0	2023-10-16	15:23:14	1	1	1	experiment	2	2	3	clock	319	45	15	6	11	75.5	32	161	23	37		18	3	erasure	3	77			31		39					112	0	3	0	1	1	0	4	6	5	1	0	0	4	0	22
