build	computer.platform	computer.touch	date	time	subject	group	sessionid	blockcode	blocknum	block	n_blocks	trialcode	latency	n_trials	block_length	best	trial	run_trial	block_type	list.triallist.currentindex	startPos	stim_center_deg	choose_stim	run_trial_dum	n_attention	n_erasure	n_no_erasure	n_clicks	require_attention	require_no_erasure	require_erasure	timeouts_remain	timeout_block	generate_new_erasure	n_curr_block
6.6.1	mac	0	2023-10-11	16:23:49	1	1	1	experiment	1	1	3	ITI	230	45	15	6	1	1	erasure	1	0	0	0	1	0	0	0	0	4	6	5	1	0	1	5
6.6.1	mac	0	2023-10-11	16:23:49	1	1	1	experiment	1	1	3	preFreeze	520	45	15	6	1	1	erasure	1	0	0	0	1	0	0	0	0	4	6	5	1	0	1	5
6.6.1	mac	0	2023-10-11	16:23:49	1	1	1	experiment	1	1	3	clock	801	45	15	6	1	1	erasure	1	46	0	0	1	0	0	0	0	4	6	5	1	0	1	5
6.6.1	mac	0	2023-10-11	16:23:49	1	1	1	experiment	1	1	3	ISI	490	45	15	6	1	1	erasure	1	46	0	0	1	0	0	0	0	4	6	5	1	0	1	5
6.6.1	mac	0	2023-10-11	16:23:49	1	1	1	experiment	1	1	3	feedback	1000	45	15	6	1	1	erasure	1	46	0	0	2	0	1	0	0	4	6	5	1	0	0	4
6.6.1	mac	0	2023-10-11	16:23:49	1	1	1	experiment	1	1	3	ITI	410	45	15	6	2	2	erasure	2	46	0	0	2	0	1	0	0	4	6	5	1	0	0	4
6.6.1	mac	0	2023-10-11	16:23:49	1	1	1	experiment	1	1	3	preFreeze	560	45	15	6	2	2	erasure	2	46	0	0	2	0	1	0	0	4	6	5	1	0	0	4
6.6.1	mac	0	2023-10-11	16:23:49	1	1	1	experiment	1	1	3	clock	1221	45	15	6	2	2	erasure	2	75	0	0	2	0	1	0	0	4	6	5	1	0	0	4
6.6.1	mac	0	2023-10-11	16:23:49	1	1	1	experiment	1	1	3	ISI	550	45	15	6	2	2	erasure	2	75	0	0	2	0	1	0	0	4	6	5	1	0	0	4
6.6.1	mac	0	2023-10-11	16:23:49	1	1	1	experiment	1	1	3	feedback	1000	45	15	6	2	2	erasure	2	75	0	0	3	0	2	0	0	4	6	5	1	0	0	3
6.6.1	mac	0	2023-10-11	16:23:49	1	1	1	experiment	1	1	3	ITI	180	45	15	6	3	3	erasure	3	75	0	0	3	0	2	0	0	4	6	5	1	0	0	3
6.6.1	mac	0	2023-10-11	16:23:49	1	1	1	experiment	1	1	3	preFreeze	580	45	15	6	3	3	erasure	3	75	0	0	3	0	2	0	0	4	6	5	1	0	0	3
6.6.1	mac	0	2023-10-11	16:23:49	1	1	1	experiment	1	1	3	clock	733	45	15	6	3	3	erasure	3	84	0	0	3	0	2	0	0	4	6	5	1	0	0	3
6.6.1	mac	0	2023-10-11	16:23:49	1	1	1	experiment	1	1	3	ISI	220	45	15	6	3	3	erasure	3	84	0	0	3	0	2	0	0	4	6	5	1	0	0	3
6.6.1	mac	0	2023-10-11	16:23:49	1	1	1	experiment	1	1	3	feedback	1000	45	15	6	3	3	erasure	3	84	0	0	4	0	3	0	0	4	6	5	1	0	0	2
6.6.1	mac	0	2023-10-11	16:23:49	1	1	1	experiment	1	1	3	ITI	420	45	15	6	4	4	erasure	4	84	0	0	4	0	3	0	0	4	6	5	1	0	0	2
6.6.1	mac	0	2023-10-11	16:23:49	1	1	1	experiment	1	1	3	preFreeze	510	45	15	6	4	4	erasure	4	84	0	0	4	0	3	0	0	4	6	5	1	0	0	2
6.6.1	mac	0	2023-10-11	16:23:49	1	1	1	experiment	1	1	3	clock	383	45	15	6	4	4	erasure	4	51	0	0	4	0	3	0	0	4	6	5	1	0	0	2
6.6.1	mac	0	2023-10-11	16:23:49	1	1	1	experiment	1	1	3	ISI	570	45	15	6	4	4	erasure	4	51	0	0	4	0	3	0	0	4	6	5	1	0	0	2
6.6.1	mac	0	2023-10-11	16:23:49	1	1	1	experiment	1	1	3	feedback	1000	45	15	6	4	4	erasure	4	51	0	0	5	0	4	0	0	4	6	5	1	0	0	1
6.6.1	mac	0	2023-10-11	16:23:49	1	1	1	experiment	1	1	3	ITI	380	45	15	6	5	5	erasure	5	51	0	0	5	0	4	0	0	4	6	5	1	0	0	1
6.6.1	mac	0	2023-10-11	16:23:49	1	1	1	experiment	1	1	3	preFreeze	700	45	15	6	5	5	erasure	5	51	0	0	5	0	4	0	0	4	6	5	1	0	0	1
6.6.1	mac	0	2023-10-11	16:23:49	1	1	1	experiment	1	1	3	clock	313	45	15	6	5	5	erasure	5	83	0	0	5	0	4	0	0	4	6	5	1	0	0	1
6.6.1	mac	0	2023-10-11	16:23:49	1	1	1	experiment	1	1	3	ISI	560	45	15	6	5	5	erasure	5	83	0	0	5	0	4	0	0	4	6	5	1	0	0	1
6.6.1	mac	0	2023-10-11	16:23:49	1	1	1	experiment	1	1	3	feedback	1000	45	15	6	5	5	erasure	5	83	0	0	6	0	5	0	0	4	6	5	1	0	0	0
6.6.1	mac	0	2023-10-11	16:23:49	1	1	1	experiment	1	1	3	ITI	330	45	15	6	6	6	erasure	6	83	0	0	6	0	5	0	0	4	6	5	1	0	0	0
6.6.1	mac	0	2023-10-11	16:23:49	1	1	1	experiment	1	1	3	preFreeze	500	45	15	6	6	6	erasure	6	83	0	0	6	0	5	0	0	4	6	5	1	0	0	0
6.6.1	mac	0	2023-10-11	16:23:49	1	1	1	experiment	1	1	3	clock	394	45	15	6	6	6	erasure	6	50	0	0	6	0	5	0	0	4	6	5	1	0	0	0
6.6.1	mac	0	2023-10-11	16:23:49	1	1	1	experiment	1	1	3	ISI	210	45	15	6	6	6	erasure	6	50	0	0	6	0	5	0	0	4	6	5	1	0	0	0
6.6.1	mac	0	2023-10-11	16:23:49	1	1	1	experiment	1	1	3	feedback	1000	45	15	6	6	6	erasure	6	50	0	0	7	0	6	0	0	4	6	5	1	0	0	-1
6.6.1	mac	0	2023-10-11	16:23:49	1	1	1	experiment	1	1	3	ITI	320	45	15	6	7	7	erasure	7	50	0	0	7	0	6	0	0	4	6	5	1	0	0	-1
6.6.1	mac	0	2023-10-11	16:23:49	1	1	1	experiment	1	1	3	preFreeze	620	45	15	6	7	7	erasure	7	50	0	0	7	0	6	0	0	4	6	5	1	0	0	-1
6.6.1	mac	0	2023-10-11	16:23:49	1	1	1	experiment	1	1	3	clock	202	45	15	6	7	7	erasure	7	31	0	0	7	0	6	0	0	4	6	5	1	0	0	-1
6.6.1	mac	0	2023-10-11	16:23:49	1	1	1	experiment	1	1	3	ISI	500	45	15	6	7	7	erasure	7	31	0	0	7	0	6	0	0	4	6	5	1	0	0	-1
6.6.1	mac	0	2023-10-11	16:23:49	1	1	1	experiment	1	1	3	feedback	53	45	15	6	7	7	erasure	7	31	0	0	8	0	7	0	0	4	6	5	1	0	0	-2
