build	computer.platform	computer.touch	date	time	subject	group	sessionid	blockcode	blocknum	block	n_blocks	trialcode	latency	n_trials	block_length	best	trial	run_trial	block_type	list.triallist.currentindex	startPos	pos_shifted	rt_shifted	rt_index	list.curr_values.nextvalue	mag	ev	rng	inc	inc_rg	stim_center_deg	choose_stim	run_trial_dum	n_attention	n_erasure	n_no_erasure	n_clicks	require_attention	require_no_erasure	require_erasure	timeouts_remain	timeout_block	generate_new_erasure	n_curr_block	list.degrees_att.currentvalue	list.degrees_era.currentvalue
6.6.1	mac	0	2023-10-12	15:54:28	1	1	1	experiment	1	1	3	ITI	330	45	15	6	1	1	no_erasure	1	0					0							1	0	0	0		4	6	5	1	0	1	6		
6.6.1	mac	0	2023-10-12	15:54:28	1	1	1	experiment	1	1	3	preFreeze	580	45	15	6	1	1	no_erasure	1	0					0							1	0	0	0		4	6	5	1	0	1	6		
6.6.1	mac	0	2023-10-12	15:54:28	1	1	1	experiment	1	1	3	clock	305	45	15	6	1	1	no_erasure	1	3					0							1	0	0	0		4	6	5	1	0	1	6		
6.6.1	mac	0	2023-10-12	15:54:28	1	1	1	experiment	1	1	3	ISI	200	45	15	6	1	1	no_erasure	1	3					0							1	0	0	0		4	6	5	1	0	1	6		
6.6.1	mac	0	2023-10-12	15:54:28	1	1	1	experiment	1	1	3	feedback	1000	45	15	6	1	1	no_erasure	1	3	122.7600000000000051159	1705	123		67	46.8999999999999985789	0.0424677992804133805	67	67			2	0	0	1		4	6	5	1	0	0	5		
6.6.1	mac	0	2023-10-12	15:54:28	1	1	1	experiment	1	1	3	ITI	160	45	15	6	2	2	no_erasure	2	3			123		67							2	0	0	1		4	6	5	1	0	0	5		
6.6.1	mac	0	2023-10-12	15:54:28	1	1	1	experiment	1	1	3	preFreeze	560	45	15	6	2	2	no_erasure	2	3			123		67							2	0	0	1		4	6	5	1	0	0	5		
6.6.1	mac	0	2023-10-12	15:54:28	1	1	1	experiment	1	1	3	clock	992	45	15	6	2	2	no_erasure	2	100			123		67							2	0	0	1		4	6	5	1	0	0	5		
6.6.1	mac	0	2023-10-12	15:54:28	1	1	1	experiment	1	1	3	ISI	270	45	15	6	2	2	no_erasure	2	100			123		67							2	0	0	1		4	6	5	1	0	0	5		
6.6.1	mac	0	2023-10-12	15:54:28	1	1	1	experiment	1	1	3	feedback	1000	45	15	6	2	2	no_erasure	2	100	161.4240000000000065938	2242	161		154	107.7999999999999971578	0.1831909502351635466	154	150			3	0	0	2		4	6	5	1	0	0	4		
6.6.1	mac	0	2023-10-12	15:54:28	1	1	1	experiment	1	1	3	ITI	340	45	15	6	3	3	no_erasure	3	100			161		154							3	0	0	2		4	6	5	1	0	0	4		
6.6.1	mac	0	2023-10-12	15:54:28	1	1	1	experiment	1	1	3	preFreeze	590	45	15	6	3	3	no_erasure	3	100			161		154							3	0	0	2		4	6	5	1	0	0	4		
6.6.1	mac	0	2023-10-12	15:54:28	1	1	1	experiment	1	1	3	clock	557	45	15	6	3	3	no_erasure	3	79			161		154							3	0	0	2		4	6	5	1	0	0	4		
6.6.1	mac	0	2023-10-12	15:54:28	1	1	1	experiment	1	1	3	ISI	540	45	15	6	3	3	no_erasure	3	79			161		154							3	0	0	2		4	6	5	1	0	0	4		
6.6.1	mac	0	2023-10-12	15:54:28	1	1	1	experiment	1	1	3	feedback	1000	45	15	6	3	3	no_erasure	3	79	54.5039999999999977831	757	55		10	7	0.3005305233645556573	10	10			4	0	0	3		4	6	5	1	0	0	3		
6.6.1	mac	0	2023-10-12	15:54:28	1	1	1	experiment	1	1	3	ITI	470	45	15	6	4	4	no_erasure	4	79			55		10							4	0	0	3		4	6	5	1	0	0	3		
6.6.1	mac	0	2023-10-12	15:54:28	1	1	1	experiment	1	1	3	preFreeze	530	45	15	6	4	4	no_erasure	4	79			55		10							4	0	0	3		4	6	5	1	0	0	3		
6.6.1	mac	0	2023-10-12	15:54:28	1	1	1	experiment	1	1	3	clock	517	45	15	6	4	4	no_erasure	4	86			55		10							4	0	0	3		4	6	5	1	0	0	3		
6.6.1	mac	0	2023-10-12	15:54:28	1	1	1	experiment	1	1	3	ISI	240	45	15	6	4	4	no_erasure	4	86			55		10							4	0	0	3		4	6	5	1	0	0	3		
6.6.1	mac	0	2023-10-12	15:54:28	1	1	1	experiment	1	1	3	feedback	1000	45	15	6	4	4	no_erasure	4	86	76.8239999999999980673	1067	77		4	2.7999999999999998224	0.1445269615260248441	4	10			5	0	0	4		4	6	5	1	0	0	2		
6.6.1	mac	0	2023-10-12	15:54:28	1	1	1	experiment	1	1	3	ITI	430	45	15	6	5	5	no_erasure	5	86			77		4							5	0	0	4		4	6	5	1	0	0	2		
6.6.1	mac	0	2023-10-12	15:54:28	1	1	1	experiment	1	1	3	preFreeze	680	45	15	6	5	5	no_erasure	5	86			77		4							5	0	0	4		4	6	5	1	0	0	2		
6.6.1	mac	0	2023-10-12	15:54:28	1	1	1	experiment	1	1	3	clock	335	45	15	6	5	5	no_erasure	5	82			77		4							5	0	0	4		4	6	5	1	0	0	2		
