build	computer.platform	computer.touch	date	time	subject	group	sessionid	blockcode	blocknum	block	n_blocks	trialcode	latency	n_trials	block_length	best	lower_quartile	upper_quartile	list.curr_values_temp.median	erasure_index	erasure_RT	erasure_value	erasure_degrees	trial	list.curr_trials.items.1	list.curr_trials.items.360	list.curr_trials.currentvalue	run_trial	block_type	list.triallist.currentindex	startPos	pos_shifted	rt_shifted	rt_index	list.curr_values.currentvalue	mag	ev	rng	inc	inc_rg	stim_center_deg	choose_stim	run_trial_dum	n_attention	n_erasure	n_no_erasure	n_clicks	require_attention	require_no_erasure	require_erasure	timeouts_remain	timeout_block	generate_new_erasure	n_curr_block	list.degrees_att.currentvalue	list.degrees_era.currentvalue
6.6.1	mac	0	2023-10-16	17:23:57	1	1	1	experiment	1	1	4	ITI	170	45	10	6	11	75.5	32	51	51	14		1	2	2		1	erasure	1	0					0					140	0	1	0	0	0	0	3	3	4	1	0	1	4	286	50
6.6.1	mac	0	2023-10-16	17:23:57	1	1	1	experiment	1	1	4	preFreeze	630	45	10	6	11	75.5	32	51	51	14		1	2	2		1	erasure	1	0					0					140	0	1	0	0	0	0	3	3	4	1	0	1	4	286	50
6.6.1	mac	0	2023-10-16	17:23:57	1	1	1	experiment	1	1	4	clock	372	45	10	6	11	75.5	32	51	51	14		1	2	2		1	erasure	1	22					0					140	0	1	0	0	0	0	3	3	4	1	0	1	4	286	50
6.6.1	mac	0	2023-10-16	17:23:57	1	1	1	experiment	1	1	4	ISI	250	45	10	6	11	75.5	32	51	51	14		1	2	2		1	erasure	1	22					0					140	0	1	0	0	0	0	3	3	4	1	0	1	4	286	50
6.6.1	mac	0	2023-10-16	17:23:57	1	1	1	experiment	1	1	4	feedback	1000	45	10	6	11	75.5	32	51	51	14		1	2	2		1	erasure	1	22	195.9840000000000088676	2722	196		132	92.3999999999999914735	0.2181730045047991506	132	132	140	0	2	0	1	0	0	3	3	4	1	0	0	3	286	50
6.6.1	mac	0	2023-10-16	17:23:57	1	1	1	experiment	1	1	4	ITI	390	45	10	6	11	75.5	32	51	51	14		2	3	3		2	erasure	2	22			196		132					140	0	2	0	1	0	0	3	3	4	1	0	0	3	286	50
6.6.1	mac	0	2023-10-16	17:23:57	1	1	1	experiment	1	1	4	preFreeze	670	45	10	6	11	75.5	32	51	51	14		2	3	3		2	erasure	2	22			196		132					140	0	2	0	1	0	0	3	3	4	1	0	0	3	286	50
6.6.1	mac	0	2023-10-16	17:23:57	1	1	1	experiment	1	1	4	clock	235	45	10	6	11	75.5	32	51	51	14		2	3	3		2	erasure	2	53			196		132					140	0	2	0	1	0	0	3	3	4	1	0	0	3	286	50
6.6.1	mac	0	2023-10-16	17:23:57	1	1	1	experiment	1	1	4	ISI	580	45	10	6	11	75.5	32	51	51	14		2	3	3		2	erasure	2	53			196		132					140	0	2	0	1	0	0	3	3	4	1	0	0	3	286	50
6.6.1	mac	0	2023-10-16	17:23:57	1	1	1	experiment	1	1	4	feedback	1000	45	10	6	11	75.5	32	51	51	14		2	3	3		2	erasure	2	53	297.7200000000000272848	4135	298		7	4.8999999999999994671	0.4745435238523743049	7	10	140	0	3	0	2	0	0	3	3	4	1	0	0	2	286	50
6.6.1	mac	0	2023-10-16	17:23:57	1	1	1	experiment	1	1	4	ITI	430	45	10	6	11	75.5	32	51	51	14		3	4	4		3	erasure	3	53			298		7					140	0	3	0	2	0	0	3	3	4	1	0	0	2	286	50
6.6.1	mac	0	2023-10-16	17:23:57	1	1	1	experiment	1	1	4	preFreeze	680	45	10	6	11	75.5	32	51	51	14		3	4	4		3	erasure	3	53			298		7					140	0	3	0	2	0	0	3	3	4	1	0	0	2	286	50
6.6.1	mac	0	2023-10-16	17:23:57	1	1	1	experiment	1	1	4	clock	502	45	10	6	11	75.5	32	51	51	14		3	4	4		3	erasure	3	17			298		7					140	0	3	0	2	0	0	3	3	4	1	0	0	2	286	50
6.6.1	mac	0	2023-10-16	17:23:57	1	1	1	experiment	1	1	4	ISI	500	45	10	6	11	75.5	32	51	51	14		3	4	4		3	erasure	3	17			298		7					140	0	3	0	2	0	0	3	3	4	1	0	0	2	286	50
6.6.1	mac	0	2023-10-16	17:23:57	1	1	1	experiment	1	1	4	feedback	1000	45	10	6	11	75.5	32	51	51	14		3	4	4		3	erasure	3	17	187.3439999999999940883	2602	187		159	111.2999999999999971578	0.3704024875467649136	159	150	140	0	4	0	3	0	0	3	3	4	1	0	0	1	286	50
6.6.1	mac	0	2023-10-16	17:23:57	1	1	1	experiment	1	1	4	ITI	250	45	10	6	11	75.5	32	51	51	14		4	5	5		4	erasure	4	17			187		159					140	0	4	0	3	0	0	3	3	4	1	0	0	1	286	50
6.6.1	mac	0	2023-10-16	17:23:57	1	1	1	experiment	1	1	4	preFreeze	500	45	10	6	11	75.5	32	51	51	14		4	5	5		4	erasure	4	17			187		159					140	0	4	0	3	0	0	3	3	4	1	0	0	1	286	50
6.6.1	mac	0	2023-10-16	17:23:57	1	1	1	experiment	1	1	4	clock	448	45	10	6	11	75.5	32	51	51	14		4	5	5		4	erasure	4	44			187		159					140	0	4	0	3	0	0	3	3	4	1	0	0	1	286	50
6.6.1	mac	0	2023-10-16	17:23:57	1	1	1	experiment	1	1	4	ISI	380	45	10	6	11	75.5	32	51	51	14		4	5	5		4	erasure	4	44			187		159					140	0	4	0	3	0	0	3	3	4	1	0	0	1	286	50
6.6.1	mac	0	2023-10-16	17:23:57	1	1	1	experiment	1	1	4	feedback	270	45	10	6	11	75.5	32	51	51	14		4	5	5		4	erasure	4	44	280.6560000000000059117	3898	281		4	2.7999999999999998224	0.5399062292510424799	4	10	140	0	5	0	4	0	0	3	3	4	1	0	0	0	286	50
