build	computer.platform	computer.touch	date	time	subject	group	sessionid	blockcode	blocknum	block	n_blocks	trialcode	latency	n_trials	block_length	best	lower_quartile	upper_quartile	list.curr_values_temp.median	erasure_index	erasure_RT	erasure_value	erasure_degrees	trial	run_trial	block_type	list.triallist.currentindex	startPos	pos_shifted	rt_shifted	rt_index	list.curr_values.currentvalue	mag	ev	rng	inc	inc_rg	stim_center_deg	choose_stim	run_trial_dum	n_attention	n_erasure	n_no_erasure	n_clicks	require_attention	require_no_erasure	require_erasure	timeouts_remain	timeout_block	generate_new_erasure	n_curr_block	list.degrees_att.currentvalue	list.degrees_era.currentvalue
6.6.1	mac	0	2023-10-16	16:36:36	1	1	1	experiment	1	1	4	ITI	140	45	10	6	11	75.5	32	142	315	14		1	1	no_erasure	1	0					0							1	0	0	0		3	3	4	1	0	1	3	0	314
6.6.1	mac	0	2023-10-16	16:36:36	1	1	1	experiment	1	1	4	preFreeze	680	45	10	6	11	75.5	32	142	315	14		1	1	no_erasure	1	0					0							1	0	0	0		3	3	4	1	0	1	3	0	314
6.6.1	mac	0	2023-10-16	16:36:36	1	1	1	experiment	1	1	4	clock	440	45	10	6	11	75.5	32	142	315	14		1	1	no_erasure	1	47					0							1	0	0	0		3	3	4	1	0	1	3	0	314
6.6.1	mac	0	2023-10-16	16:36:36	1	1	1	experiment	1	1	4	ISI	220	45	10	6	11	75.5	32	142	315	14		1	1	no_erasure	1	47					0							1	0	0	0		3	3	4	1	0	1	3	0	314
6.6.1	mac	0	2023-10-16	16:36:36	1	1	1	experiment	1	1	4	feedback	1000	45	10	6	11	75.5	32	142	315	14		1	1	no_erasure	1	47	290.8799999999999954525	4040	291		4	2.7999999999999998224	0.2927450093656650543	4	10			2	0	0	1		3	3	4	1	0	0	2	0	314
6.6.1	mac	0	2023-10-16	16:36:36	1	1	1	experiment	1	1	4	ITI	280	45	10	6	11	75.5	32	142	315	14		2	2	no_erasure	2	47			291		4							2	0	0	1		3	3	4	1	0	0	2	0	314
6.6.1	mac	0	2023-10-16	16:36:36	1	1	1	experiment	1	1	4	preFreeze	640	45	10	6	11	75.5	32	142	315	14		2	2	no_erasure	2	47			291		4							2	0	0	1		3	3	4	1	0	0	2	0	314
6.6.1	mac	0	2023-10-16	16:36:36	1	1	1	experiment	1	1	4	clock	310	45	10	6	11	75.5	32	142	315	14		2	2	no_erasure	2	26			291		4							2	0	0	1		3	3	4	1	0	0	2	0	314
6.6.1	mac	0	2023-10-16	16:36:36	1	1	1	experiment	1	1	4	ISI	380	45	10	6	11	75.5	32	142	315	14		2	2	no_erasure	2	26			291		4							2	0	0	1		3	3	4	1	0	0	2	0	314
6.6.1	mac	0	2023-10-16	16:36:36	1	1	1	experiment	1	1	4	feedback	1000	45	10	6	11	75.5	32	142	315	14		2	2	no_erasure	2	26	205.9199999999999874944	2860	206		100	70	0.5238782219877182733	100	100			3	0	0	2		3	3	4	1	0	0	1	0	314
6.6.1	mac	0	2023-10-16	16:36:36	1	1	1	experiment	1	1	4	ITI	330	45	10	6	11	75.5	32	142	315	14		3	3	no_erasure	3	26			206		100							3	0	0	2		3	3	4	1	0	0	1	0	314
6.6.1	mac	0	2023-10-16	16:36:36	1	1	1	experiment	1	1	4	preFreeze	520	45	10	6	11	75.5	32	142	315	14		3	3	no_erasure	3	26			206		100							3	0	0	2		3	3	4	1	0	0	1	0	314
6.6.1	mac	0	2023-10-16	16:36:36	1	1	1	experiment	1	1	4	clock	366	45	10	6	11	75.5	32	142	315	14		3	3	no_erasure	3	99			206		100							3	0	0	2		3	3	4	1	0	0	1	0	314
6.6.1	mac	0	2023-10-16	16:36:36	1	1	1	experiment	1	1	4	ISI	500	45	10	6	11	75.5	32	142	315	14		3	3	no_erasure	3	99			206		100							3	0	0	2		3	3	4	1	0	0	1	0	314
6.6.1	mac	0	2023-10-16	16:36:36	1	1	1	experiment	1	1	4	feedback	1000	45	10	6	11	75.5	32	142	315	14		3	3	no_erasure	3	99	112.7519999999999953388	1566	113		33	23.0999999999999978684	0.5865522440491598433	33	33			4	0	0	3		3	3	4	1	0	0	0	0	314
6.6.1	mac	0	2023-10-16	16:36:36	1	1	1	experiment	1	1	4	ITI	110	45	10	6	11	75.5	32	142	315	14		4	4	attention	4	99			113		33					38	0	4	0	0	3	0	3	3	4	1	0	1	3	308	314
6.6.1	mac	0	2023-10-16	16:36:36	1	1	1	experiment	1	1	4	preFreeze	580	45	10	6	11	75.5	32	142	315	14		4	4	attention	4	99			113		33					38	0	4	0	0	3	0	3	3	4	1	0	1	3	308	314
6.6.1	mac	0	2023-10-16	16:36:36	1	1	1	experiment	1	1	4	clock	1913	45	10	6	11	75.5	32	142	315	14		4	4	attention	4	59			113		33					38	0	4	0	0	3	0	3	3	4	1	0	1	3	308	314
6.6.1	mac	0	2023-10-16	16:36:36	1	1	1	experiment	1	1	4	ISI	540	45	10	6	11	75.5	32	142	315	14		4	4	attention	4	59			113		33					38	0	4	0	0	3	0	3	3	4	1	0	1	3	308	314
6.6.1	mac	0	2023-10-16	16:36:36	1	1	1	experiment	1	1	4	feedback	1000	45	10	6	11	75.5	32	142	315	14		4	4	attention	4	59	80.1359999999999956799	1113	80		5	3.5	0.2131885963522802685	5	10	38	0	5	1	0	3	0	3	3	4	1	0	0	2	308	314
6.6.1	mac	0	2023-10-16	16:36:36	1	1	1	experiment	1	1	4	ITI	100	45	10	6	11	75.5	32	142	315	14		5	5	attention	5	59			80		5					38	0	5	1	0	3	0	3	3	4	1	0	0	2	308	314
6.6.1	mac	0	2023-10-16	16:36:36	1	1	1	experiment	1	1	4	preFreeze	510	45	10	6	11	75.5	32	142	315	14		5	5	attention	5	59			80		5					38	0	5	1	0	3	0	3	3	4	1	0	0	2	308	314
6.6.1	mac	0	2023-10-16	16:36:36	1	1	1	experiment	1	1	4	clock	368	45	10	6	11	75.5	32	142	315	14		5	5	attention	5	96			80		5					38	0	5	1	0	3	0	3	3	4	1	0	0	2	308	314
6.6.1	mac	0	2023-10-16	16:36:36	1	1	1	experiment	1	1	4	ISI	450	45	10	6	11	75.5	32	142	315	14		5	5	attention	5	96			80		5					38	0	5	1	0	3	0	3	3	4	1	0	0	2	308	314
6.6.1	mac	0	2023-10-16	16:36:36	1	1	1	experiment	1	1	4	feedback	1000	45	10	6	11	75.5	32	142	315	14		5	5	attention	5	96	102.096000000000003638	1418	102		14	9.7999999999999989342	0.4550004656089005062	14	14	38	0	6	2	0	3	0	3	3	4	1	0	0	1	308	314
6.6.1	mac	0	2023-10-16	16:36:36	1	1	1	experiment	1	1	4	ITI	320	45	10	6	11	75.5	32	142	315	14		6	6	attention	6	96			102		14					38	0	6	2	0	3	0	3	3	4	1	0	0	1	308	314
6.6.1	mac	0	2023-10-16	16:36:36	1	1	1	experiment	1	1	4	preFreeze	630	45	10	6	11	75.5	32	142	315	14		6	6	attention	6	96			102		14					38	0	6	2	0	3	0	3	3	4	1	0	0	1	308	314
6.6.1	mac	0	2023-10-16	16:36:36	1	1	1	experiment	1	1	4	clock	426	45	10	6	11	75.5	32	142	315	14		6	6	attention	6	33			102		14					38	0	6	2	0	3	0	3	3	4	1	0	0	1	308	314
6.6.1	mac	0	2023-10-16	16:36:36	1	1	1	experiment	1	1	4	ISI	290	45	10	6	11	75.5	32	142	315	14		6	6	attention	6	33			102		14					38	0	6	2	0	3	0	3	3	4	1	0	0	1	308	314
6.6.1	mac	0	2023-10-16	16:36:36	1	1	1	experiment	1	1	4	feedback	1000	45	10	6	11	75.5	32	142	315	14		6	6	attention	6	33	239.4720000000000084128	3326	239		68	47.5999999999999943157	0.6533225501545990577	68	68	38	0	7	3	0	3	0	3	3	4	1	0	0	0	308	314
6.6.1	mac	0	2023-10-16	16:36:36	1	1	1	experiment	1	1	4	ITI	490	45	10	6	11	75.5	32	142	315	14		7	7	no_erasure	7	33			239		68					38		7	3	0	3	0	3	3	4	0	1	0	1	308	314
6.6.1	mac	0	2023-10-16	16:36:36	1	1	1	experiment	1	1	4	preFreeze	620	45	10	6	11	75.5	32	142	315	14		7	7	no_erasure	7	33			239		68					38		7	3	0	3	0	3	3	4	0	1	0	1	308	314
6.6.1	mac	0	2023-10-16	16:36:36	1	1	1	experiment	1	1	4	clock	476	45	10	6	11	75.5	32	142	315	14		7	7	no_erasure	7	36			239		68					38		7	3	0	3	0	3	3	4	0	1	0	1	308	314
6.6.1	mac	0	2023-10-16	16:36:36	1	1	1	experiment	1	1	4	ISI	250	45	10	6	11	75.5	32	142	315	14		7	7	no_erasure	7	36			239		68					38		7	3	0	3	0	3	3	4	0	1	0	1	308	314
6.6.1	mac	0	2023-10-16	16:36:36	1	1	1	experiment	1	1	4	feedback	1000	45	10	6	11	75.5	32	142	315	14		7	7	no_erasure	7	36	253.8720000000000140972	3526	254		26	18.1999999999999992895	0.2607738702233819983	26	26	38		8	3	0	4	0	3	3	4	0	1	0	0	308	314
6.6.1	mac	0	2023-10-16	16:36:36	1	1	1	experiment	1	1	4	ITI	240	45	10	6	11	75.5	32	142	315	14		8	8	erasure	8	36			254		26					44	0	8	3	0	4	0	3	3	4	1	0	1	4	308	314
6.6.1	mac	0	2023-10-16	16:36:36	1	1	1	experiment	1	1	4	preFreeze	700	45	10	6	11	75.5	32	142	315	14		8	8	erasure	8	36			254		26					44	0	8	3	0	4	0	3	3	4	1	0	1	4	308	314
6.6.1	mac	0	2023-10-16	16:36:36	1	1	1	experiment	1	1	4	clock	1847	45	10	6	11	75.5	32	142	315	14		8	8	erasure	8	50			254		26					44	0	8	3	0	4	0	3	3	4	1	0	1	4	308	314
6.6.1	mac	0	2023-10-16	16:36:36	1	1	1	experiment	1	1	4	ISI	430	45	10	6	11	75.5	32	142	315	14		8	8	erasure	8	50			254		26					44	0	8	3	0	4	0	3	3	4	1	0	1	4	308	314
6.6.1	mac	0	2023-10-16	16:36:36	1	1	1	experiment	1	1	4	feedback	1000	45	10	6	11	75.5	32	142	315	14		8	8	erasure	8	50	42.9840000000000017621	597	43		39	27.2999999999999971578	0.5980413764710634794	39	39	44	1	9	3	1	4	1	3	3	4	1	0	0	3	308	314
6.6.1	mac	0	2023-10-16	16:36:36	1	1	1	experiment	1	1	4	ITI	460	45	10	6	11	75.5	32	142	315	14		9	9	erasure	9	50			43		39					44	1	9	3	1	4	1	3	3	4	1	0	0	3	308	314
6.6.1	mac	0	2023-10-16	16:36:36	1	1	1	experiment	1	1	4	preFreeze	590	45	10	6	11	75.5	32	142	315	14		9	9	erasure	9	50			43		39					44	1	9	3	1	4	1	3	3	4	1	0	0	3	308	314
6.6.1	mac	0	2023-10-16	16:36:36	1	1	1	experiment	1	1	4	clock	4697	45	10	6	11	75.5	32	142	315	14		9	9	erasure	9	93			43		39					44	1	9	3	1	4	1	3	3	4	1	0	0	3	308	314
6.6.1	mac	0	2023-10-16	16:36:36	1	1	1	experiment	1	1	4	ISI	570	45	10	6	11	75.5	32	142	315	14		9	9	erasure	9	93			43		39					44	1	9	3	1	4	1	3	3	4	1	0	0	3	308	314
6.6.1	mac	0	2023-10-16	16:36:36	1	1	1	experiment	1	1	4	feedback	1000	45	10	6	11	75.5	32	142	315	14		9	9	erasure	9	93	42.9840000000000017621	597	43		41	28.6999999999999992895	0.822376886341342872	10	10	44	1	10	3	2	4	2	3	3	4	1	0	0	2	308	314
6.6.1	mac	0	2023-10-16	16:36:36	1	1	1	experiment	1	1	4	ITI	470	45	10	6	11	75.5	32	142	315	14		10	10	no_erasure	10	93			43		41					44		10	3	2	4		3	3	4	0	1	0	1	308	314
6.6.1	mac	0	2023-10-16	16:36:36	1	1	1	experiment	1	1	4	preFreeze	600	45	10	6	11	75.5	32	142	315	14		10	10	no_erasure	10	93			43		41					44		10	3	2	4		3	3	4	0	1	0	1	308	314
6.6.1	mac	0	2023-10-16	16:36:36	1	1	1	experiment	1	1	4	clock	468	45	10	6	11	75.5	32	142	315	14		10	10	no_erasure	10	51			43		41					44		10	3	2	4		3	3	4	0	1	0	1	308	314
6.6.1	mac	0	2023-10-16	16:36:36	1	1	1	experiment	1	1	4	ISI	530	45	10	6	11	75.5	32	142	315	14		10	10	no_erasure	10	51			43		41					44		10	3	2	4		3	3	4	0	1	0	1	308	314
6.6.1	mac	0	2023-10-16	16:36:36	1	1	1	experiment	1	1	4	feedback	1000	45	10	6	11	75.5	32	142	315	14		10	10	no_erasure	10	51	307.2959999999999922693	4268	307		4	2.7999999999999998224	0.5629336411512767535	4	10	44		11	3	2	5		3	3	4	0	1	0	0	308	314
6.6.1	mac	0	2023-10-16	16:36:36	1	1	1	experiment	2	2	4	ITI	300	45	10	6	11	75.5	32	332	315	14		11	1	erasure	1	51			307		4					44	0	1	0	0	0	0	3	3	4	1	0	1	4	308	314
6.6.1	mac	0	2023-10-16	16:36:36	1	1	1	experiment	2	2	4	preFreeze	550	45	10	6	11	75.5	32	332	315	14		11	1	erasure	1	51			307		4					44	0	1	0	0	0	0	3	3	4	1	0	1	4	308	314
6.6.1	mac	0	2023-10-16	16:36:36	1	1	1	experiment	2	2	4	clock	1332	45	10	6	11	75.5	32	332	315	14		11	1	erasure	1	73			307		4					44	0	1	0	0	0	0	3	3	4	1	0	1	4	308	314
6.6.1	mac	0	2023-10-16	16:36:36	1	1	1	experiment	2	2	4	ISI	420	45	10	6	11	75.5	32	332	315	14		11	1	erasure	1	73			307		4					44	0	1	0	0	0	0	3	3	4	1	0	1	4	308	314
6.6.1	mac	0	2023-10-16	16:36:36	1	1	1	experiment	2	2	4	feedback	1000	45	10	6	11	75.5	32	332	315	14		11	1	erasure	1	73	88.7039999999999935199	1232	89		11	7.6999999999999992895	0.2773219757427745624	11	11	44	0	2	0	1	0	0	3	3	4	1	0	0	3	308	314
6.6.1	mac	0	2023-10-16	16:36:36	1	1	1	experiment	2	2	4	ITI	350	45	10	6	11	75.5	32	332	315	14		12	2	erasure	2	73			89		11					44	0	2	0	1	0	0	3	3	4	1	0	0	3	308	314
6.6.1	mac	0	2023-10-16	16:36:36	1	1	1	experiment	2	2	4	preFreeze	500	45	10	6	11	75.5	32	332	315	14		12	2	erasure	2	73			89		11					44	0	2	0	1	0	0	3	3	4	1	0	0	3	308	314
6.6.1	mac	0	2023-10-16	16:36:36	1	1	1	experiment	2	2	4	clock	407	45	10	6	11	75.5	32	332	315	14		12	2	erasure	2	30			89		11					44	0	2	0	1	0	0	3	3	4	1	0	0	3	308	314
6.6.1	mac	0	2023-10-16	16:36:36	1	1	1	experiment	2	2	4	ISI	550	45	10	6	11	75.5	32	332	315	14		12	2	erasure	2	30			89		11					44	0	2	0	1	0	0	3	3	4	1	0	0	3	308	314
6.6.1	mac	0	2023-10-16	16:36:36	1	1	1	experiment	2	2	4	feedback	1000	45	10	6	11	75.5	32	332	315	14		12	2	erasure	2	30	227.3040000000000020464	3157	227		108	75.5999999999999943157	0.0489296086712110792	108	108	44	0	3	0	2	0	0	3	3	4	1	0	0	2	308	314
6.6.1	mac	0	2023-10-16	16:36:36	1	1	1	experiment	2	2	4	ITI	340	45	10	6	11	75.5	32	332	315	14		13	3	erasure	3	30			227		108					44	0	3	0	2	0	0	3	3	4	1	0	0	2	308	314
6.6.1	mac	0	2023-10-16	16:36:36	1	1	1	experiment	2	2	4	preFreeze	570	45	10	6	11	75.5	32	332	315	14		13	3	erasure	3	30			227		108					44	0	3	0	2	0	0	3	3	4	1	0	0	2	308	314
6.6.1	mac	0	2023-10-16	16:36:36	1	1	1	experiment	2	2	4	clock	317	45	10	6	11	75.5	32	332	315	14		13	3	erasure	3	98			227		108					44	0	3	0	2	0	0	3	3	4	1	0	0	2	308	314
6.6.1	mac	0	2023-10-16	16:36:36	1	1	1	experiment	2	2	4	ISI	310	45	10	6	11	75.5	32	332	315	14		13	3	erasure	3	98			227		108					44	0	3	0	2	0	0	3	3	4	1	0	0	2	308	314
6.6.1	mac	0	2023-10-16	16:36:36	1	1	1	experiment	2	2	4	feedback	1000	45	10	6	11	75.5	32	332	315	14		13	3	erasure	3	98	105.6239999999999952252	1467	106		5	3.5	0.3003903481411724918	5	10	44	0	4	0	3	0	0	3	3	4	1	0	0	1	308	314
6.6.1	mac	0	2023-10-16	16:36:36	1	1	1	experiment	2	2	4	ITI	150	45	10	6	11	75.5	32	332	315	14		14	4	erasure	4	98			106		5					44	0	4	0	3	0	0	3	3	4	1	0	0	1	308	314
6.6.1	mac	0	2023-10-16	16:36:36	1	1	1	experiment	2	2	4	preFreeze	540	45	10	6	11	75.5	32	332	315	14		14	4	erasure	4	98			106		5					44	0	4	0	3	0	0	3	3	4	1	0	0	1	308	314
6.6.1	mac	0	2023-10-16	16:36:36	1	1	1	experiment	2	2	4	clock	389	45	10	6	11	75.5	32	332	315	14		14	4	erasure	4	69			106		5					44	0	4	0	3	0	0	3	3	4	1	0	0	1	308	314
6.6.1	mac	0	2023-10-16	16:36:36	1	1	1	experiment	2	2	4	ISI	260	45	10	6	11	75.5	32	332	315	14		14	4	erasure	4	69			106		5					44	0	4	0	3	0	0	3	3	4	1	0	0	1	308	314
6.6.1	mac	0	2023-10-16	16:36:36	1	1	1	experiment	2	2	4	feedback	1000	45	10	6	11	75.5	32	332	315	14		14	4	erasure	4	69	6.4080000000000003624	89	6		32	22.3999999999999985789	0.4410917222129860371	32	32	44	0	5	0	4	0	0	3	3	4	1	0	0	0	308	314
6.6.1	mac	0	2023-10-16	16:36:36	1	1	1	experiment	2	2	4	ITI	250	45	10	6	11	75.5	32	332	315	14		15	5	no_erasure	5	69			6		32					44		5	0	4	0	0	3	3	4	0	1	0	1	308	314
6.6.1	mac	0	2023-10-16	16:36:36	1	1	1	experiment	2	2	4	preFreeze	530	45	10	6	11	75.5	32	332	315	14		15	5	no_erasure	5	69			6		32					44		5	0	4	0	0	3	3	4	0	1	0	1	308	314
6.6.1	mac	0	2023-10-16	16:36:36	1	1	1	experiment	2	2	4	clock	409	45	10	6	11	75.5	32	332	315	14		15	5	no_erasure	5	17			6		32					44		5	0	4	0	0	3	3	4	0	1	0	1	308	314
6.6.1	mac	0	2023-10-16	16:36:36	1	1	1	experiment	2	2	4	ISI	600	45	10	6	11	75.5	32	332	315	14		15	5	no_erasure	5	17			6		32					44		5	0	4	0	0	3	3	4	0	1	0	1	308	314
6.6.1	mac	0	2023-10-16	16:36:36	1	1	1	experiment	2	2	4	feedback	1000	45	10	6	11	75.5	32	332	315	14		15	5	no_erasure	5	17	180.6479999999999961346	2509	181		162	113.3999999999999914735	0.4081434377953744308	162	150	44		6	0	4	1	0	3	3	4	0	1	0	0	308	314
6.6.1	mac	0	2023-10-16	16:36:36	1	1	1	experiment	2	2	4	ITI	130	45	10	6	11	75.5	32	332	315	14		16	6	no_erasure	6	17			181		162					44		6	0	4	1		3	3	4	1	0	1	-1	308	314
6.6.1	mac	0	2023-10-16	16:36:36	1	1	1	experiment	2	2	4	preFreeze	660	45	10	6	11	75.5	32	332	315	14		16	6	no_erasure	6	17			181		162					44		6	0	4	1		3	3	4	1	0	1	-1	308	314
6.6.1	mac	0	2023-10-16	16:36:36	1	1	1	experiment	2	2	4	clock	404	45	10	6	11	75.5	32	332	315	14		16	6	no_erasure	6	90			181		162					44		6	0	4	1		3	3	4	1	0	1	-1	308	314
6.6.1	mac	0	2023-10-16	16:36:36	1	1	1	experiment	2	2	4	ISI	280	45	10	6	11	75.5	32	332	315	14		16	6	no_erasure	6	90			181		162					44		6	0	4	1		3	3	4	1	0	1	-1	308	314
6.6.1	mac	0	2023-10-16	16:36:36	1	1	1	experiment	2	2	4	feedback	1000	45	10	6	11	75.5	32	332	315	14		16	6	no_erasure	6	90	83.0879999999999938609	1154	83		5	3.5	0.9071918928313981167	10	10	44		7	0	4	2		3	3	4	1	0	0	-2	308	314
6.6.1	mac	0	2023-10-16	16:36:36	1	1	1	experiment	2	2	4	ITI	400	45	10	6	11	75.5	32	332	315	14		17	7	no_erasure	7	90			83		5					44		7	0	4	2		3	3	4	1	0	1	-2	308	314
6.6.1	mac	0	2023-10-16	16:36:36	1	1	1	experiment	2	2	4	preFreeze	610	45	10	6	11	75.5	32	332	315	14		17	7	no_erasure	7	90			83		5					44		7	0	4	2		3	3	4	1	0	1	-2	308	314
6.6.1	mac	0	2023-10-16	16:36:36	1	1	1	experiment	2	2	4	clock	485	45	10	6	11	75.5	32	332	315	14		17	7	no_erasure	7	63			83		5					44		7	0	4	2		3	3	4	1	0	1	-2	308	314
6.6.1	mac	0	2023-10-16	16:36:36	1	1	1	experiment	2	2	4	ISI	340	45	10	6	11	75.5	32	332	315	14		17	7	no_erasure	7	63			83		5					44		7	0	4	2		3	3	4	1	0	1	-2	308	314
6.6.1	mac	0	2023-10-16	16:36:36	1	1	1	experiment	2	2	4	feedback	1000	45	10	6	11	75.5	32	332	315	14		17	7	no_erasure	7	63	351.7200000000000272848	4885	352		31	21.6999999999999992895	0.5873275584511755687	31	31	44		8	0	4	3		3	3	4	1	0	0	-3	308	314
6.6.1	mac	0	2023-10-16	16:36:36	1	1	1	experiment	2	2	4	ITI	120	45	10	6	11	75.5	32	332	315	14		18	8	attention	8	63			352		31					38	0	8	0	4	3	0	3	3	4	1	0	1	3	308	314
6.6.1	mac	0	2023-10-16	16:36:36	1	1	1	experiment	2	2	4	preFreeze	650	45	10	6	11	75.5	32	332	315	14		18	8	attention	8	63			352		31					38	0	8	0	4	3	0	3	3	4	1	0	1	3	308	314
6.6.1	mac	0	2023-10-16	16:36:36	1	1	1	experiment	2	2	4	clock	922	45	10	6	11	75.5	32	332	315	14		18	8	attention	8	80			352		31					38	0	8	0	4	3	0	3	3	4	1	0	1	3	308	314
6.6.1	mac	0	2023-10-16	16:36:36	1	1	1	experiment	2	2	4	ISI	510	45	10	6	11	75.5	32	332	315	14		18	8	attention	8	80			352		31					38	0	8	0	4	3	0	3	3	4	1	0	1	3	308	314
6.6.1	mac	0	2023-10-16	16:36:36	1	1	1	experiment	2	2	4	feedback	1000	45	10	6	11	75.5	32	332	315	14		18	8	attention	8	80	84.3840000000000003411	1172	84		4	2.7999999999999998224	0.7974576954258274508	10	10	38	0	9	1	4	3	0	3	3	4	1	0	0	2	308	314
6.6.1	mac	0	2023-10-16	16:36:36	1	1	1	experiment	2	2	4	ITI	360	45	10	6	11	75.5	32	332	315	14		19	9	attention	9	80			84		4					38	0	9	1	4	3	0	3	3	4	1	0	0	2	308	314
6.6.1	mac	0	2023-10-16	16:36:36	1	1	1	experiment	2	2	4	preFreeze	690	45	10	6	11	75.5	32	332	315	14		19	9	attention	9	80			84		4					38	0	9	1	4	3	0	3	3	4	1	0	0	2	308	314
6.6.1	mac	0	2023-10-16	16:36:36	1	1	1	experiment	2	2	4	clock	392	45	10	6	11	75.5	32	332	315	14		19	9	attention	9	55			84		4					38	0	9	1	4	3	0	3	3	4	1	0	0	2	308	314
6.6.1	mac	0	2023-10-16	16:36:36	1	1	1	experiment	2	2	4	ISI	560	45	10	6	11	75.5	32	332	315	14		19	9	attention	9	55			84		4					38	0	9	1	4	3	0	3	3	4	1	0	0	2	308	314
6.6.1	mac	0	2023-10-16	16:36:36	1	1	1	experiment	2	2	4	feedback	1000	45	10	6	11	75.5	32	332	315	14		19	9	attention	9	55	316.2239999999999895408	4392	316		10	7	0.2742669603960278812	10	10	38	0	10	2	4	3	0	3	3	4	1	0	0	1	308	314
6.6.1	mac	0	2023-10-16	16:36:36	1	1	1	experiment	2	2	4	ITI	500	45	10	6	11	75.5	32	332	315	14		20	10	attention	10	55			316		10					38	0	10	2	4	3	0	3	3	4	1	0	0	1	308	314
6.6.1	mac	0	2023-10-16	16:36:36	1	1	1	experiment	2	2	4	preFreeze	670	45	10	6	11	75.5	32	332	315	14		20	10	attention	10	55			316		10					38	0	10	2	4	3	0	3	3	4	1	0	0	1	308	314
6.6.1	mac	0	2023-10-16	16:36:36	1	1	1	experiment	2	2	4	clock	405	45	10	6	11	75.5	32	332	315	14		20	10	attention	10	25			316		10					38	0	10	2	4	3	0	3	3	4	1	0	0	1	308	314
6.6.1	mac	0	2023-10-16	16:36:36	1	1	1	experiment	2	2	4	ISI	410	45	10	6	11	75.5	32	332	315	14		20	10	attention	10	25			316		10					38	0	10	2	4	3	0	3	3	4	1	0	0	1	308	314
6.6.1	mac	0	2023-10-16	16:36:36	1	1	1	experiment	2	2	4	feedback	1000	45	10	6	11	75.5	32	332	315	14		20	10	attention	10	25	209.1599999999999965894	2905	209		119	83.2999999999999971578	0.0704151010304724517	119	119	38	0	11	3	4	3	0	3	3	4	1	0	0	0	308	314
6.6.1	mac	0	2023-10-16	16:36:36	1	1	1	experiment	3	3	4	ITI	200	45	10	6	11	75.5	32	322	315	14		21	1	no_erasure	1	25			209		119					38		1	0	0	0		3	3	4	0	1	0	1	308	314
6.6.1	mac	0	2023-10-16	16:36:36	1	1	1	experiment	3	3	4	preFreeze	560	45	10	6	11	75.5	32	322	315	14		21	1	no_erasure	1	25			209		119					38		1	0	0	0		3	3	4	0	1	0	1	308	314
6.6.1	mac	0	2023-10-16	16:36:36	1	1	1	experiment	3	3	4	clock	353	45	10	6	11	75.5	32	322	315	14		21	1	no_erasure	1	21			209		119					38		1	0	0	0		3	3	4	0	1	0	1	308	314
6.6.1	mac	0	2023-10-16	16:36:36	1	1	1	experiment	3	3	4	ISI	350	45	10	6	11	75.5	32	322	315	14		21	1	no_erasure	1	21			209		119					38		1	0	0	0		3	3	4	0	1	0	1	308	314
6.6.1	mac	0	2023-10-16	16:36:36	1	1	1	experiment	3	3	4	feedback	1000	45	10	6	11	75.5	32	322	315	14		21	1	no_erasure	1	21	191.0159999999999911324	2653	191		161	112.6999999999999886313	0.6699752499512339199	161	150	38		2	0	0	1		3	3	4	0	1	0	0	308	314
6.6.1	mac	0	2023-10-16	16:36:36	1	1	1	experiment	3	3	4	ITI	380	45	10	6	11	75.5	32	322	315	14		22	2	no_erasure	2	21			191		161					38		2	0	0	1		3	3	4	1	0	1	-2	308	314
6.6.1	mac	0	2023-10-16	16:36:36	1	1	1	experiment	3	3	4	preFreeze	700	45	10	6	11	75.5	32	322	315	14		22	2	no_erasure	2	21			191		161					38		2	0	0	1		3	3	4	1	0	1	-2	308	314
6.6.1	mac	0	2023-10-16	16:36:36	1	1	1	experiment	3	3	4	clock	280	45	10	6	11	75.5	32	322	315	14		22	2	no_erasure	2	33			191		161					38		2	0	0	1		3	3	4	1	0	1	-2	308	314
6.6.1	mac	0	2023-10-16	16:36:36	1	1	1	experiment	3	3	4	ISI	470	45	10	6	11	75.5	32	322	315	14		22	2	no_erasure	2	33			191		161					38		2	0	0	1		3	3	4	1	0	1	-2	308	314
6.6.1	mac	0	2023-10-16	16:36:36	1	1	1	experiment	3	3	4	feedback	1000	45	10	6	11	75.5	32	322	315	14		22	2	no_erasure	2	33	228.9600000000000079581	3180	229		81	56.6999999999999957367	0.6792668708784661558	81	81	38		3	0	0	2		3	3	4	1	0	0	-3	308	314
6.6.1	mac	0	2023-10-16	16:36:36	1	1	1	experiment	3	3	4	ITI	220	45	10	6	11	75.5	32	322	315	14		23	3	no_erasure	3	33			229		81					38		3	0	0	2		3	3	4	1	0	1	-3	308	314
6.6.1	mac	0	2023-10-16	16:36:36	1	1	1	experiment	3	3	4	preFreeze	580	45	10	6	11	75.5	32	322	315	14		23	3	no_erasure	3	33			229		81					38		3	0	0	2		3	3	4	1	0	1	-3	308	314
6.6.1	mac	0	2023-10-16	16:36:36	1	1	1	experiment	3	3	4	clock	360	45	10	6	11	75.5	32	322	315	14		23	3	no_erasure	3	44			229		81					38		3	0	0	2		3	3	4	1	0	1	-3	308	314
6.6.1	mac	0	2023-10-16	16:36:36	1	1	1	experiment	3	3	4	ISI	460	45	10	6	11	75.5	32	322	315	14		23	3	no_erasure	3	44			229		81					38		3	0	0	2		3	3	4	1	0	1	-3	308	314
6.6.1	mac	0	2023-10-16	16:36:36	1	1	1	experiment	3	3	4	feedback	1000	45	10	6	11	75.5	32	322	315	14		23	3	no_erasure	3	44	274.3199999999999931788	3810	274		23	16.0999999999999978684	0.3715634398096155921	23	23	38		4	0	0	3		3	3	4	1	0	0	-4	308	314
6.6.1	mac	0	2023-10-16	16:36:36	1	1	1	experiment	3	3	4	ITI	450	45	10	6	11	75.5	32	322	315	14		24	4	erasure	4	44			274		23					44	0	4	0	0	3	0	3	3	4	1	0	1	4	308	314
6.6.1	mac	0	2023-10-16	16:36:36	1	1	1	experiment	3	3	4	preFreeze	510	45	10	6	11	75.5	32	322	315	14		24	4	erasure	4	44			274		23					44	0	4	0	0	3	0	3	3	4	1	0	1	4	308	314
6.6.1	mac	0	2023-10-16	16:36:36	1	1	1	experiment	3	3	4	clock	458	45	10	6	11	75.5	32	322	315	14		24	4	erasure	4	99			274		23					44	0	4	0	0	3	0	3	3	4	1	0	1	4	308	314
6.6.1	mac	0	2023-10-16	16:36:36	1	1	1	experiment	3	3	4	ISI	270	45	10	6	11	75.5	32	322	315	14		24	4	erasure	4	99			274		23					44	0	4	0	0	3	0	3	3	4	1	0	1	4	308	314
6.6.1	mac	0	2023-10-16	16:36:36	1	1	1	experiment	3	3	4	feedback	1000	45	10	6	11	75.5	32	322	315	14		24	4	erasure	4	99	119.3760000000000047748	1658	119		18	12.5999999999999996447	0.0135899276969930916	18	18	44	0	5	0	1	3	0	3	3	4	1	0	0	3	308	314
6.6.1	mac	0	2023-10-16	16:36:36	1	1	1	experiment	3	3	4	ITI	480	45	10	6	11	75.5	32	322	315	14		25	5	erasure	5	99			119		18					44	0	5	0	1	3	0	3	3	4	1	0	0	3	308	314
6.6.1	mac	0	2023-10-16	16:36:36	1	1	1	experiment	3	3	4	preFreeze	520	45	10	6	11	75.5	32	322	315	14		25	5	erasure	5	99			119		18					44	0	5	0	1	3	0	3	3	4	1	0	0	3	308	314
6.6.1	mac	0	2023-10-16	16:36:36	1	1	1	experiment	3	3	4	clock	360	45	10	6	11	75.5	32	322	315	14		25	5	erasure	5	54			119		18					44	0	5	0	1	3	0	3	3	4	1	0	0	3	308	314
6.6.1	mac	0	2023-10-16	16:36:36	1	1	1	experiment	3	3	4	ISI	360	45	10	6	11	75.5	32	322	315	14		25	5	erasure	5	54			119		18					44	0	5	0	1	3	0	3	3	4	1	0	0	3	308	314
6.6.1	mac	0	2023-10-16	16:36:36	1	1	1	experiment	3	3	4	feedback	1000	45	10	6	11	75.5	32	322	315	14		25	5	erasure	5	54	310.3199999999999931788	4310	310		13	9.0999999999999996447	0.6363570298152875226	13	13	44	0	6	0	2	3	0	3	3	4	1	0	0	2	308	314
6.6.1	mac	0	2023-10-16	16:36:36	1	1	1	experiment	3	3	4	ITI	390	45	10	6	11	75.5	32	322	315	14		26	6	erasure	6	54			310		13					44	0	6	0	2	3	0	3	3	4	1	0	0	2	308	314
6.6.1	mac	0	2023-10-16	16:36:36	1	1	1	experiment	3	3	4	preFreeze	670	45	10	6	11	75.5	32	322	315	14		26	6	erasure	6	54			310		13					44	0	6	0	2	3	0	3	3	4	1	0	0	2	308	314
6.6.1	mac	0	2023-10-16	16:36:36	1	1	1	experiment	3	3	4	clock	374	45	10	6	11	75.5	32	322	315	14		26	6	erasure	6	64			310		13					44	0	6	0	2	3	0	3	3	4	1	0	0	2	308	314
6.6.1	mac	0	2023-10-16	16:36:36	1	1	1	experiment	3	3	4	ISI	440	45	10	6	11	75.5	32	322	315	14		26	6	erasure	6	64			310		13					44	0	6	0	2	3	0	3	3	4	1	0	0	2	308	314
6.6.1	mac	0	2023-10-16	16:36:36	1	1	1	experiment	3	3	4	feedback	1000	45	10	6	11	75.5	32	322	315	14		26	6	erasure	6	64	347.3279999999999745341	4824	347		22	15.3999999999999985789	0.2442217828343207497	22	22	44	0	7	0	3	3	0	3	3	4	1	0	0	1	308	314
6.6.1	mac	0	2023-10-16	16:36:36	1	1	1	experiment	3	3	4	ITI	420	45	10	6	11	75.5	32	322	315	14		27	7	erasure	7	64			347		22					44	0	7	0	3	3	0	3	3	4	1	0	0	1	308	314
6.6.1	mac	0	2023-10-16	16:36:36	1	1	1	experiment	3	3	4	preFreeze	570	45	10	6	11	75.5	32	322	315	14		27	7	erasure	7	64			347		22					44	0	7	0	3	3	0	3	3	4	1	0	0	1	308	314
6.6.1	mac	0	2023-10-16	16:36:36	1	1	1	experiment	3	3	4	clock	488	45	10	6	11	75.5	32	322	315	14		27	7	erasure	7	12			347		22					44	0	7	0	3	3	0	3	3	4	1	0	0	1	308	314
6.6.1	mac	0	2023-10-16	16:36:36	1	1	1	experiment	3	3	4	ISI	240	45	10	6	11	75.5	32	322	315	14		27	7	erasure	7	12			347		22					44	0	7	0	3	3	0	3	3	4	1	0	0	1	308	314
6.6.1	mac	0	2023-10-16	16:36:36	1	1	1	experiment	3	3	4	feedback	1000	45	10	6	11	75.5	32	322	315	14		27	7	erasure	7	12	168.3360000000000127329	2338	168		66	46.1999999999999957367	0.314556115380152157	66	66	44	0	8	0	4	3	0	3	3	4	1	0	0	0	308	314
6.6.1	mac	0	2023-10-16	16:36:36	1	1	1	experiment	3	3	4	ITI	260	45	10	6	11	75.5	32	322	315	14		28	8	no_erasure	8	12			168		66					44		8	0	4	3	0	3	3	4	0	1	0	1	308	314
6.6.1	mac	0	2023-10-16	16:36:36	1	1	1	experiment	3	3	4	preFreeze	560	45	10	6	11	75.5	32	322	315	14		28	8	no_erasure	8	12			168		66					44		8	0	4	3	0	3	3	4	0	1	0	1	308	314
6.6.1	mac	0	2023-10-16	16:36:36	1	1	1	experiment	3	3	4	clock	334	45	10	6	11	75.5	32	322	315	14		28	8	no_erasure	8	8			168		66					44		8	0	4	3	0	3	3	4	0	1	0	1	308	314
6.6.1	mac	0	2023-10-16	16:36:36	1	1	1	experiment	3	3	4	ISI	480	45	10	6	11	75.5	32	322	315	14		28	8	no_erasure	8	8			168		66					44		8	0	4	3	0	3	3	4	0	1	0	1	308	314
6.6.1	mac	0	2023-10-16	16:36:36	1	1	1	experiment	3	3	4	feedback	1000	45	10	6	11	75.5	32	322	315	14		28	8	no_erasure	8	8	142.8480000000000131877	1984	143		37	25.8999999999999985789	0.0068871791024895336	37	37	44		9	0	4	4	0	3	3	4	0	1	0	0	308	314
6.6.1	mac	0	2023-10-16	16:36:36	1	1	1	experiment	3	3	4	ITI	180	45	10	6	11	75.5	32	322	315	14		29	9	attention	9	8			143		37					38	0	9	0	4	4	0	3	3	4	1	0	1	3	308	314
6.6.1	mac	0	2023-10-16	16:36:36	1	1	1	experiment	3	3	4	preFreeze	530	45	10	6	11	75.5	32	322	315	14		29	9	attention	9	8			143		37					38	0	9	0	4	4	0	3	3	4	1	0	1	3	308	314
6.6.1	mac	0	2023-10-16	16:36:36	1	1	1	experiment	3	3	4	clock	390	45	10	6	11	75.5	32	322	315	14		29	9	attention	9	26			143		37					38	0	9	0	4	4	0	3	3	4	1	0	1	3	308	314
6.6.1	mac	0	2023-10-16	16:36:36	1	1	1	experiment	3	3	4	ISI	520	45	10	6	11	75.5	32	322	315	14		29	9	attention	9	26			143		37					38	0	9	0	4	4	0	3	3	4	1	0	1	3	308	314
6.6.1	mac	0	2023-10-16	16:36:36	1	1	1	experiment	3	3	4	feedback	1000	45	10	6	11	75.5	32	322	315	14		29	9	attention	9	26	211.6800000000000068212	2940	212		110	77	0.8968540227266154075	10	10	38	0	10	1	4	4	0	3	3	4	1	0	0	2	308	314
6.6.1	mac	0	2023-10-16	16:36:36	1	1	1	experiment	3	3	4	ITI	190	45	10	6	11	75.5	32	322	315	14		30	10	attention	10	26			212		110					38	0	10	1	4	4	0	3	3	4	1	0	0	2	308	314
6.6.1	mac	0	2023-10-16	16:36:36	1	1	1	experiment	3	3	4	preFreeze	690	45	10	6	11	75.5	32	322	315	14		30	10	attention	10	26			212		110					38	0	10	1	4	4	0	3	3	4	1	0	0	2	308	314
6.6.1	mac	0	2023-10-16	16:36:36	1	1	1	experiment	3	3	4	clock	345	45	10	6	11	75.5	32	322	315	14		30	10	attention	10	3			212		110					38	0	10	1	4	4	0	3	3	4	1	0	0	2	308	314
6.6.1	mac	0	2023-10-16	16:36:36	1	1	1	experiment	3	3	4	ISI	490	45	10	6	11	75.5	32	322	315	14		30	10	attention	10	3			212		110					38	0	10	1	4	4	0	3	3	4	1	0	0	2	308	314
6.6.1	mac	0	2023-10-16	16:36:36	1	1	1	experiment	3	3	4	feedback	1000	45	10	6	11	75.5	32	322	315	14		30	10	attention	10	3	125.6400000000000005684	1745	126		32	22.3999999999999985789	0.2691906688895985833	32	32	38	0	11	2	4	4	0	3	3	4	1	0	0	1	308	314
6.6.1	mac	0	2023-10-16	16:36:36	1	1	1	experiment	4	4	4	ITI	170	45	10	6	34	58.5	43	317	315	14		31	1	no_erasure	1	3			126		32					38		1	0	0	0		3	3	4	0	1	0	1	308	314
6.6.1	mac	0	2023-10-16	16:36:36	1	1	1	experiment	4	4	4	preFreeze	680	45	10	6	34	58.5	43	317	315	14		31	1	no_erasure	1	3			126		32					38		1	0	0	0		3	3	4	0	1	0	1	308	314
6.6.1	mac	0	2023-10-16	16:36:36	1	1	1	experiment	4	4	4	clock	377	45	10	6	34	58.5	43	317	315	14		31	1	no_erasure	1	4			126		32					38		1	0	0	0		3	3	4	0	1	0	1	308	314
6.6.1	mac	0	2023-10-16	16:36:36	1	1	1	experiment	4	4	4	ISI	400	45	10	6	34	58.5	43	317	315	14		31	1	no_erasure	1	4			126		32					38		1	0	0	0		3	3	4	0	1	0	1	308	314
6.6.1	mac	0	2023-10-16	16:36:36	1	1	1	experiment	4	4	4	feedback	1000	45	10	6	34	58.5	43	317	315	14		31	1	no_erasure	1	4	131.5440000000000111413	1827	132		37	25.8999999999999985789	0.2192744541026825089	37	37	38		2	0	0	1		3	3	4	0	1	0	0	308	314
6.6.1	mac	0	2023-10-16	16:36:36	1	1	1	experiment	4	4	4	ITI	370	45	10	6	34	58.5	43	317	315	14		32	2	no_erasure	2	4			132		37					38		2	0	0	1		3	3	4	1	0	1	-4	308	314
6.6.1	mac	0	2023-10-16	16:36:36	1	1	1	experiment	4	4	4	preFreeze	550	45	10	6	34	58.5	43	317	315	14		32	2	no_erasure	2	4			132		37					38		2	0	0	1		3	3	4	1	0	1	-4	308	314
6.6.1	mac	0	2023-10-16	16:36:36	1	1	1	experiment	4	4	4	clock	219	45	10	6	34	58.5	43	317	315	14		32	2	no_erasure	2	28			132		37					38		2	0	0	1		3	3	4	1	0	1	-4	308	314
