build	computer.platform	computer.touch	date	time	subject	group	sessionid	blockcode	blocknum	block	n_blocks	trialcode	latency	n_trials	block_length	best	trial	run_trial	block_type	list.triallist.currentindex	startPos	pos_shifted	rt_shifted	rt_index	list.curr_values.nextvalue	mag	ev	rng	inc	inc_rg	stim_center_deg	choose_stim	run_trial_dum	n_attention	n_erasure	n_no_erasure	n_clicks	require_attention	require_no_erasure	require_erasure	timeouts_remain	timeout_block	generate_new_erasure	n_curr_block	list.degrees_att.currentvalue	list.degrees_era.currentvalue
6.6.1	mac	0	2023-10-12	15:41:27	1	1	1	experiment	1	1	3	ITI	280	45	15	6	1	1	no_erasure	1	0					0							1	0	0	0		4	6	5	1	0	1	6		
6.6.1	mac	0	2023-10-12	15:41:27	1	1	1	experiment	1	1	3	preFreeze	630	45	15	6	1	1	no_erasure	1	0					0							1	0	0	0		4	6	5	1	0	1	6		
6.6.1	mac	0	2023-10-12	15:41:27	1	1	1	experiment	1	1	3	clock	310	45	15	6	1	1	no_erasure	1	72					0							1	0	0	0		4	6	5	1	0	1	6		
6.6.1	mac	0	2023-10-12	15:41:27	1	1	1	experiment	1	1	3	ISI	300	45	15	6	1	1	no_erasure	1	72					0							1	0	0	0		4	6	5	1	0	1	6		
6.6.1	mac	0	2023-10-12	15:41:27	1	1	1	experiment	1	1	3	feedback	1000	45	15	6	1	1	no_erasure	1	72	11.5199999999999995737	160	12		42	29.3999999999999985789	0.7624047987075533994	10	10			2	0	0	1		4	6	5	1	0	0	5		
6.6.1	mac	0	2023-10-12	15:41:27	1	1	1	experiment	1	1	3	ITI	290	45	15	6	2	2	no_erasure	2	72			12		42							2	0	0	1		4	6	5	1	0	0	5		
6.6.1	mac	0	2023-10-12	15:41:27	1	1	1	experiment	1	1	3	preFreeze	680	45	15	6	2	2	no_erasure	2	72			12		42							2	0	0	1		4	6	5	1	0	0	5		
6.6.1	mac	0	2023-10-12	15:41:27	1	1	1	experiment	1	1	3	clock	294	45	15	6	2	2	no_erasure	2	84			12		42							2	0	0	1		4	6	5	1	0	0	5		
6.6.1	mac	0	2023-10-12	15:41:27	1	1	1	experiment	1	1	3	ISI	520	45	15	6	2	2	no_erasure	2	84			12		42							2	0	0	1		4	6	5	1	0	0	5		
6.6.1	mac	0	2023-10-12	15:41:27	1	1	1	experiment	1	1	3	feedback	1000	45	15	6	2	2	no_erasure	2	84	53.56799999999999784	744	54		12	8.3999999999999985789	0.3691547751354879447	12	12			3	0	0	2		4	6	5	1	0	0	4		
6.6.1	mac	0	2023-10-12	15:41:27	1	1	1	experiment	1	1	3	ITI	390	45	15	6	3	3	no_erasure	3	84			54		12							3	0	0	2		4	6	5	1	0	0	4		
6.6.1	mac	0	2023-10-12	15:41:27	1	1	1	experiment	1	1	3	preFreeze	640	45	15	6	3	3	no_erasure	3	84			54		12							3	0	0	2		4	6	5	1	0	0	4		
6.6.1	mac	0	2023-10-12	15:41:27	1	1	1	experiment	1	1	3	clock	401	45	15	6	3	3	no_erasure	3	17			54		12							3	0	0	2		4	6	5	1	0	0	4		
6.6.1	mac	0	2023-10-12	15:41:27	1	1	1	experiment	1	1	3	ISI	540	45	15	6	3	3	no_erasure	3	17			54		12							3	0	0	2		4	6	5	1	0	0	4		
6.6.1	mac	0	2023-10-12	15:41:27	1	1	1	experiment	1	1	3	feedback	1000	45	15	6	3	3	no_erasure	3	17	180.0720000000000027285	2501	180		158	110.5999999999999943157	0.7567065245836755993	10	10			4	0	0	3		4	6	5	1	0	0	3		
6.6.1	mac	0	2023-10-12	15:41:27	1	1	1	experiment	1	1	3	ITI	220	45	15	6	4	4	no_erasure	4	17			180		158							4	0	0	3		4	6	5	1	0	0	3		
6.6.1	mac	0	2023-10-12	15:41:27	1	1	1	experiment	1	1	3	preFreeze	500	45	15	6	4	4	no_erasure	4	17			180		158							4	0	0	3		4	6	5	1	0	0	3		
6.6.1	mac	0	2023-10-12	15:41:27	1	1	1	experiment	1	1	3	clock	451	45	15	6	4	4	no_erasure	4	90			180		158							4	0	0	3		4	6	5	1	0	0	3		
6.6.1	mac	0	2023-10-12	15:41:27	1	1	1	experiment	1	1	3	ISI	270	45	15	6	4	4	no_erasure	4	90			180		158							4	0	0	3		4	6	5	1	0	0	3		
6.6.1	mac	0	2023-10-12	15:41:27	1	1	1	experiment	1	1	3	feedback	1000	45	15	6	4	4	no_erasure	4	90	86.471999999999994202	1201	86		6	4.1999999999999992895	0.5796376787078654225	6	10			5	0	0	4		4	6	5	1	0	0	2		
6.6.1	mac	0	2023-10-12	15:41:27	1	1	1	experiment	1	1	3	ITI	110	45	15	6	5	5	no_erasure	5	90			86		6							5	0	0	4		4	6	5	1	0	0	2		
6.6.1	mac	0	2023-10-12	15:41:27	1	1	1	experiment	1	1	3	preFreeze	540	45	15	6	5	5	no_erasure	5	90			86		6							5	0	0	4		4	6	5	1	0	0	2		
6.6.1	mac	0	2023-10-12	15:41:27	1	1	1	experiment	1	1	3	clock	417	45	15	6	5	5	no_erasure	5	79			86		6							5	0	0	4		4	6	5	1	0	0	2		
6.6.1	mac	0	2023-10-12	15:41:27	1	1	1	experiment	1	1	3	ISI	240	45	15	6	5	5	no_erasure	5	79			86		6							5	0	0	4		4	6	5	1	0	0	2		
6.6.1	mac	0	2023-10-12	15:41:27	1	1	1	experiment	1	1	3	feedback	1000	45	15	6	5	5	no_erasure	5	79	44.4239999999999994884	617	44		30	21	0.7525650783797178667	10	10			6	0	0	5		4	6	5	1	0	0	1		
6.6.1	mac	0	2023-10-12	15:41:27	1	1	1	experiment	1	1	3	ITI	500	45	15	6	6	6	no_erasure	6	79			44		30							6	0	0	5		4	6	5	1	0	0	1		
6.6.1	mac	0	2023-10-12	15:41:27	1	1	1	experiment	1	1	3	preFreeze	560	45	15	6	6	6	no_erasure	6	79			44		30							6	0	0	5		4	6	5	1	0	0	1		
6.6.1	mac	0	2023-10-12	15:41:27	1	1	1	experiment	1	1	3	clock	305	45	15	6	6	6	no_erasure	6	63			44		30							6	0	0	5		4	6	5	1	0	0	1		
6.6.1	mac	0	2023-10-12	15:41:27	1	1	1	experiment	1	1	3	ISI	560	45	15	6	6	6	no_erasure	6	63			44		30							6	0	0	5		4	6	5	1	0	0	1		
6.6.1	mac	0	2023-10-12	15:41:27	1	1	1	experiment	1	1	3	feedback	1000	45	15	6	6	6	no_erasure	6	63	338.7599999999999909051	4705	339		23	16.0999999999999978684	0.374894220702092662	23	23			7	0	0	6		4	6	5	1	0	0	0		
6.6.1	mac	0	2023-10-12	15:41:27	1	1	1	experiment	1	1	3	ITI	410	45	15	6	7	7	erasure	7	63			339		23					249	0	7	0	0	6	0	4	6	5	1	0	1	5		159
6.6.1	mac	0	2023-10-12	15:41:27	1	1	1	experiment	1	1	3	preFreeze	530	45	15	6	7	7	erasure	7	63			339		23					249	0	7	0	0	6	0	4	6	5	1	0	1	5		159
6.6.1	mac	0	2023-10-12	15:41:27	1	1	1	experiment	1	1	3	clock	340	45	15	6	7	7	erasure	7	59			339		23					249	0	7	0	0	6	0	4	6	5	1	0	1	5		159
6.6.1	mac	0	2023-10-12	15:41:27	1	1	1	experiment	1	1	3	ISI	330	45	15	6	7	7	erasure	7	59			339		23					249	0	7	0	0	6	0	4	6	5	1	0	1	5		159
6.6.1	mac	0	2023-10-12	15:41:27	1	1	1	experiment	1	1	3	feedback	1000	45	15	6	7	7	erasure	7	59	326.8799999999999954525	4540	327		10	7	0.468503770294716515	10	10	249	0	8	0	1	6	0	4	6	5	1	0	0	4		159
6.6.1	mac	0	2023-10-12	15:41:27	1	1	1	experiment	1	1	3	ITI	180	45	15	6	8	8	erasure	8	59			327		10					249	0	8	0	1	6	0	4	6	5	1	0	0	4		159
6.6.1	mac	0	2023-10-12	15:41:27	1	1	1	experiment	1	1	3	preFreeze	520	45	15	6	8	8	erasure	8	59			327		10					249	0	8	0	1	6	0	4	6	5	1	0	0	4		159
6.6.1	mac	0	2023-10-12	15:41:27	1	1	1	experiment	1	1	3	clock	234	45	15	6	8	8	erasure	8	10			327		10					249	0	8	0	1	6	0	4	6	5	1	0	0	4		159
6.6.1	mac	0	2023-10-12	15:41:27	1	1	1	experiment	1	1	3	ISI	570	45	15	6	8	8	erasure	8	10			327		10					249	0	8	0	1	6	0	4	6	5	1	0	0	4		159
6.6.1	mac	0	2023-10-12	15:41:27	1	1	1	experiment	1	1	3	feedback	1000	45	15	6	8	8	erasure	8	10	142.8480000000000131877	1984	143		81	56.6999999999999957367	0.2448621288046385347	81	81	249	0	9	0	2	6	0	4	6	5	1	0	0	3		159
6.6.1	mac	0	2023-10-12	15:41:27	1	1	1	experiment	1	1	3	ITI	200	45	15	6	9	9	erasure	9	10			143		81					249	0	9	0	2	6	0	4	6	5	1	0	0	3		159
6.6.1	mac	0	2023-10-12	15:41:27	1	1	1	experiment	1	1	3	preFreeze	580	45	15	6	9	9	erasure	9	10			143		81					249	0	9	0	2	6	0	4	6	5	1	0	0	3		159
6.6.1	mac	0	2023-10-12	15:41:27	1	1	1	experiment	1	1	3	clock	366	45	15	6	9	9	erasure	9	69			143		81					249	0	9	0	2	6	0	4	6	5	1	0	0	3		159
6.6.1	mac	0	2023-10-12	15:41:27	1	1	1	experiment	1	1	3	ISI	370	45	15	6	9	9	erasure	9	69			143		81					249	0	9	0	2	6	0	4	6	5	1	0	0	3		159
6.6.1	mac	0	2023-10-12	15:41:27	1	1	1	experiment	1	1	3	feedback	1000	45	15	6	9	9	erasure	9	69	4.7519999999999997797	66	5		32	22.3999999999999985789	0.184996709270634857	32	32	249	0	10	0	3	6	0	4	6	5	1	0	0	2		159
6.6.1	mac	0	2023-10-12	15:41:27	1	1	1	experiment	1	1	3	ITI	370	45	15	6	10	10	erasure	10	69			5		32					249	0	10	0	3	6	0	4	6	5	1	0	0	2		159
6.6.1	mac	0	2023-10-12	15:41:27	1	1	1	experiment	1	1	3	preFreeze	610	45	15	6	10	10	erasure	10	69			5		32					249	0	10	0	3	6	0	4	6	5	1	0	0	2		159
6.6.1	mac	0	2023-10-12	15:41:27	1	1	1	experiment	1	1	3	clock	39	45	15	6	10	10	erasure	10	81			5		32					249	0	10	0	3	6	0	4	6	5	1	0	0	2		159
6.6.1	mac	0	2023-10-12	15:41:27	1	1	1	experiment	1	1	3	ISI	230	45	15	6	10	10	erasure	10	81			5		32					249	0	10	0	3	6	0	4	6	5	1	0	0	2		159
6.6.1	mac	0	2023-10-12	15:41:27	1	1	1	experiment	1	1	3	feedback	1000	45	15	6	10	10	erasure	10	81	24.4080000000000012506	339	24		40	28	0.9157246544295281065	10	10	249	0	11	0	4	6	0	4	6	5	1	0	0	1		159
6.6.1	mac	0	2023-10-12	15:41:27	1	1	1	experiment	1	1	3	ITI	450	45	15	6	11	11	erasure	11	81			24		40					249	0	11	0	4	6	0	4	6	5	1	0	0	1		159
6.6.1	mac	0	2023-10-12	15:41:27	1	1	1	experiment	1	1	3	preFreeze	690	45	15	6	11	11	erasure	11	81			24		40					249	0	11	0	4	6	0	4	6	5	1	0	0	1		159
6.6.1	mac	0	2023-10-12	15:41:27	1	1	1	experiment	1	1	3	clock	3	45	15	6	11	11	erasure	11	73			24		40					249	0	11	0	4	6	0	4	6	5	1	0	0	1		159
6.6.1	mac	0	2023-10-12	15:41:27	1	1	1	experiment	1	1	3	ISI	530	45	15	6	11	11	erasure	11	73			24		40					249	0	11	0	4	6	0	4	6	5	1	0	0	1		159
6.6.1	mac	0	2023-10-12	15:41:27	1	1	1	experiment	1	1	3	feedback	1000	45	15	6	11	11	erasure	11	73	353.0160000000000195541	4903	353		16	11.1999999999999992895	0.2945137273740288109	16	16	249	0	12	0	5	6	0	4	6	5	1	0	0	0		159
6.6.1	mac	0	2023-10-12	15:41:27	1	1	1	experiment	1	1	3	ITI	100	45	15	6	12	12	erasure	12	73			353		16					249	0	12	0	5	6	0	4	6	5	1	0	0	0		159
6.6.1	mac	0	2023-10-12	15:41:27	1	1	1	experiment	1	1	3	preFreeze	510	45	15	6	12	12	erasure	12	73			353		16					249	0	12	0	5	6	0	4	6	5	1	0	0	0		159
6.6.1	mac	0	2023-10-12	15:41:27	1	1	1	experiment	1	1	3	clock	251	45	15	6	12	12	erasure	12	28			353		16					249	0	12	0	5	6	0	4	6	5	1	0	0	0		159
6.6.1	mac	0	2023-10-12	15:41:27	1	1	1	experiment	1	1	3	ISI	390	45	15	6	12	12	erasure	12	28			353		16					249	0	12	0	5	6	0	4	6	5	1	0	0	0		159
6.6.1	mac	0	2023-10-12	15:41:27	1	1	1	experiment	1	1	3	feedback	1000	45	15	6	12	12	erasure	12	28	208.8720000000000140972	2901	209		162	113.3999999999999914735	0.2604119557096650772	162	150	249	0	13	0	6	6	0	4	6	5	1	0	0	-1		159
6.6.1	mac	0	2023-10-12	15:41:27	1	1	1	experiment	1	1	3	ITI	480	45	15	6	13	13	erasure	13	28			209		162					249	0	13	0	6	6	0	4	6	5	1	0	0	-1		159
6.6.1	mac	0	2023-10-12	15:41:27	1	1	1	experiment	1	1	3	preFreeze	700	45	15	6	13	13	erasure	13	28			209		162					249	0	13	0	6	6	0	4	6	5	1	0	0	-1		159
6.6.1	mac	0	2023-10-12	15:41:27	1	1	1	experiment	1	1	3	clock	273	45	15	6	13	13	erasure	13	3			209		162					249	0	13	0	6	6	0	4	6	5	1	0	0	-1		159
6.6.1	mac	0	2023-10-12	15:41:27	1	1	1	experiment	1	1	3	ISI	480	45	15	6	13	13	erasure	13	3			209		162					249	0	13	0	6	6	0	4	6	5	1	0	0	-1		159
6.6.1	mac	0	2023-10-12	15:41:27	1	1	1	experiment	1	1	3	feedback	1000	45	15	6	13	13	erasure	13	3	120.4560000000000030695	1673	120		8	5.5999999999999996447	0.6471219257561308114	8	10	249	0	14	0	7	6	0	4	6	5	1	0	0	-2		159
6.6.1	mac	0	2023-10-12	15:41:27	1	1	1	experiment	1	1	3	ITI	320	45	15	6	14	14	erasure	14	3			120		8					249	0	14	0	7	6	0	4	6	5	1	0	0	-2		159
6.6.1	mac	0	2023-10-12	15:41:27	1	1	1	experiment	1	1	3	preFreeze	550	45	15	6	14	14	erasure	14	3			120		8					249	0	14	0	7	6	0	4	6	5	1	0	0	-2		159
6.6.1	mac	0	2023-10-12	15:41:27	1	1	1	experiment	1	1	3	clock	233	45	15	6	14	14	erasure	14	21			120		8					249	0	14	0	7	6	0	4	6	5	1	0	0	-2		159
6.6.1	mac	0	2023-10-12	15:41:27	1	1	1	experiment	1	1	3	ISI	410	45	15	6	14	14	erasure	14	21			120		8					249	0	14	0	7	6	0	4	6	5	1	0	0	-2		159
6.6.1	mac	0	2023-10-12	15:41:27	1	1	1	experiment	1	1	3	feedback	1000	45	15	6	14	14	erasure	14	21	182.3760000000000047748	2533	182		152	106.3999999999999914735	0.8634478763824905423	10	10	249	0	15	0	8	6	0	4	6	5	1	0	0	-3		159
6.6.1	mac	0	2023-10-12	15:41:27	1	1	1	experiment	1	1	3	ITI	170	45	15	6	15	15	erasure	15	21			182		152					249	0	15	0	8	6	0	4	6	5	1	0	0	-3		159
6.6.1	mac	0	2023-10-12	15:41:27	1	1	1	experiment	1	1	3	preFreeze	670	45	15	6	15	15	erasure	15	21			182		152					249	0	15	0	8	6	0	4	6	5	1	0	0	-3		159
6.6.1	mac	0	2023-10-12	15:41:27	1	1	1	experiment	1	1	3	clock	249	45	15	6	15	15	erasure	15	56			182		152					249	0	15	0	8	6	0	4	6	5	1	0	0	-3		159
6.6.1	mac	0	2023-10-12	15:41:27	1	1	1	experiment	1	1	3	ISI	580	45	15	6	15	15	erasure	15	56			182		152					249	0	15	0	8	6	0	4	6	5	1	0	0	-3		159
6.6.1	mac	0	2023-10-12	15:41:27	1	1	1	experiment	1	1	3	feedback	1000	45	15	6	15	15	erasure	15	56	309.5280000000000200089	4299	310		3	2.0999999999999996447	0.6585546011707174019	3	10	249	0	16	0	9	6	0	4	6	5	1	0	0	-4		159
6.6.1	mac	0	2023-10-12	15:41:27	1	1	1	experiment	2	2	3	ITI	490	45	15	6	16	1	no_erasure	1	56			310		3					249		1	0	0	0		4	6	5	0	1	0	1		159
6.6.1	mac	0	2023-10-12	15:41:27	1	1	1	experiment	2	2	3	preFreeze	570	45	15	6	16	1	no_erasure	1	56			310		3					249		1	0	0	0		4	6	5	0	1	0	1		159
6.6.1	mac	0	2023-10-12	15:41:27	1	1	1	experiment	2	2	3	clock	265	45	15	6	16	1	no_erasure	1	26			310		3					249		1	0	0	0		4	6	5	0	1	0	1		159
6.6.1	mac	0	2023-10-12	15:41:27	1	1	1	experiment	2	2	3	ISI	510	45	15	6	16	1	no_erasure	1	26			310		3					249		1	0	0	0		4	6	5	0	1	0	1		159
6.6.1	mac	0	2023-10-12	15:41:27	1	1	1	experiment	2	2	3	feedback	1000	45	15	6	16	1	no_erasure	1	26	202.6800000000000068212	2815	203		161	112.6999999999999886313	0.668241639777142904	161	150	249		2	0	0	1		4	6	5	0	1	0	0		159
6.6.1	mac	0	2023-10-12	15:41:27	1	1	1	experiment	2	2	3	ITI	240	45	15	6	17	2	attention	2	26			203		161					209	0	2	0	0	1	0	4	6	5	1	0	1	4	119	159
6.6.1	mac	0	2023-10-12	15:41:27	1	1	1	experiment	2	2	3	preFreeze	660	45	15	6	17	2	attention	2	26			203		161					209	0	2	0	0	1	0	4	6	5	1	0	1	4	119	159
6.6.1	mac	0	2023-10-12	15:41:27	1	1	1	experiment	2	2	3	clock	332	45	15	6	17	2	attention	2	23			203		161					209	0	2	0	0	1	0	4	6	5	1	0	1	4	119	159
6.6.1	mac	0	2023-10-12	15:41:27	1	1	1	experiment	2	2	3	ISI	420	45	15	6	17	2	attention	2	23			203		161					209	0	2	0	0	1	0	4	6	5	1	0	1	4	119	159
6.6.1	mac	0	2023-10-12	15:41:27	1	1	1	experiment	2	2	3	feedback	1000	45	15	6	17	2	attention	2	23	196.7040000000000077307	2732	197		152	106.3999999999999914735	0.561635050354906129	152	150	209	1	3	1	0	1	1	4	6	5	1	0	0	3	119	159
6.6.1	mac	0	2023-10-12	15:41:27	1	1	1	experiment	2	2	3	ITI	250	45	15	6	18	3	attention	3	23			197		152					209	1	3	1	0	1	1	4	6	5	1	0	0	3	119	159
6.6.1	mac	0	2023-10-12	15:41:27	1	1	1	experiment	2	2	3	preFreeze	590	45	15	6	18	3	attention	3	23			197		152					209	1	3	1	0	1	1	4	6	5	1	0	0	3	119	159
6.6.1	mac	0	2023-10-12	15:41:27	1	1	1	experiment	2	2	3	clock	338	45	15	6	18	3	attention	3	39			197		152					209	1	3	1	0	1	1	4	6	5	1	0	0	3	119	159
6.6.1	mac	0	2023-10-12	15:41:27	1	1	1	experiment	2	2	3	ISI	210	45	15	6	18	3	attention	3	39			197		152					209	1	3	1	0	1	1	4	6	5	1	0	0	3	119	159
6.6.1	mac	0	2023-10-12	15:41:27	1	1	1	experiment	2	2	3	feedback	1000	45	15	6	18	3	attention	3	39	254.7359999999999899956	3538	255		17	11.8999999999999985789	0.8839577659694379808	10	10	209	0	4	2	0	1	1	4	6	5	1	0	0	2	119	159
6.6.1	mac	0	2023-10-12	15:41:27	1	1	1	experiment	2	2	3	ITI	300	45	15	6	19	4	attention	4	39			255		17					209	0	4	2	0	1	1	4	6	5	1	0	0	2	119	159
6.6.1	mac	0	2023-10-12	15:41:27	1	1	1	experiment	2	2	3	preFreeze	620	45	15	6	19	4	attention	4	39			255		17					209	0	4	2	0	1	1	4	6	5	1	0	0	2	119	159
6.6.1	mac	0	2023-10-12	15:41:27	1	1	1	experiment	2	2	3	clock	348	45	15	6	19	4	attention	4	67			255		17					209	0	4	2	0	1	1	4	6	5	1	0	0	2	119	159
6.6.1	mac	0	2023-10-12	15:41:27	1	1	1	experiment	2	2	3	ISI	440	45	15	6	19	4	attention	4	67			255		17					209	0	4	2	0	1	1	4	6	5	1	0	0	2	119	159
6.6.1	mac	0	2023-10-12	15:41:27	1	1	1	experiment	2	2	3	feedback	1000	45	15	6	19	4	attention	4	67	356.2559999999999718057	4948	356		33	23.0999999999999978684	0.9484352199240669856	10	10	209	0	5	3	0	1	1	4	6	5	1	0	0	1	119	159
6.6.1	mac	0	2023-10-12	15:41:27	1	1	1	experiment	2	2	3	ITI	360	45	15	6	20	5	attention	5	67			356		33					209	0	5	3	0	1	1	4	6	5	1	0	0	1	119	159
6.6.1	mac	0	2023-10-12	15:41:27	1	1	1	experiment	2	2	3	preFreeze	650	45	15	6	20	5	attention	5	67			356		33					209	0	5	3	0	1	1	4	6	5	1	0	0	1	119	159
6.6.1	mac	0	2023-10-12	15:41:27	1	1	1	experiment	2	2	3	clock	322	45	15	6	20	5	attention	5	96			356		33					209	0	5	3	0	1	1	4	6	5	1	0	0	1	119	159
6.6.1	mac	0	2023-10-12	15:41:27	1	1	1	experiment	2	2	3	ISI	450	45	15	6	20	5	attention	5	96			356		33					209	0	5	3	0	1	1	4	6	5	1	0	0	1	119	159
6.6.1	mac	0	2023-10-12	15:41:27	1	1	1	experiment	2	2	3	feedback	979	45	15	6	20	5	attention	5	96	98.7840000000000060254	1372	99		11	7.6999999999999992895	0.7404408540438024433	10	10	209	0	6	4	0	1	1	4	6	5	1	0	0	0	119	159
