build	computer.platform	computer.touch	date	time	subject	group	sessionid	blockcode	blocknum	block	n_blocks	trialcode	latency	n_trials	block_length	best	trial	run_trial	block_type	list.triallist.currentindex	startPos	pos_shifted	rt_shifted	rt_index	list.curr_values.nextvalue	mag	ev	rng	inc	inc_rg	stim_center_deg	choose_stim	run_trial_dum	n_attention	n_erasure	n_no_erasure	n_clicks	require_attention	require_no_erasure	require_erasure	timeouts_remain	timeout_block	generate_new_erasure	n_curr_block	list.degrees_att.currentvalue	list.degrees_era.currentvalue
6.6.1	mac	0	2023-10-12	16:39:06	1	1	1	experiment	1	1	3	ITI	240	45	15	6	1	1	erasure	1	0					0					249	0	1	0	0	0	0	4	6	5	1	0	1	5		159
6.6.1	mac	0	2023-10-12	16:39:06	1	1	1	experiment	1	1	3	preFreeze	510	45	15	6	1	1	erasure	1	0					0					249	0	1	0	0	0	0	4	6	5	1	0	1	5		159
6.6.1	mac	0	2023-10-12	16:39:06	1	1	1	experiment	1	1	3	clock	2323	45	15	6	1	1	erasure	1	61					0					249	0	1	0	0	0	0	4	6	5	1	0	1	5		159
6.6.1	mac	0	2023-10-12	16:39:06	1	1	1	experiment	1	1	3	ISI	220	45	15	6	1	1	erasure	1	61					0					249	0	1	0	0	0	0	4	6	5	1	0	1	5		159
6.6.1	mac	0	2023-10-12	16:39:06	1	1	1	experiment	1	1	3	feedback	1000	45	15	6	1	1	erasure	1	61	116.855999999999994543	1623	117		53	37.0999999999999943157	0.4141666156738453286	53	53	249	0	2	0	1	0	0	4	6	5	1	0	0	4		159
6.6.1	mac	0	2023-10-12	16:39:06	1	1	1	experiment	1	1	3	ITI	190	45	15	6	2	2	erasure	2	61			117		53					249	0	2	0	1	0	0	4	6	5	1	0	0	4		159
6.6.1	mac	0	2023-10-12	16:39:06	1	1	1	experiment	1	1	3	preFreeze	670	45	15	6	2	2	erasure	2	61			117		53					249	0	2	0	1	0	0	4	6	5	1	0	0	4		159
6.6.1	mac	0	2023-10-12	16:39:06	1	1	1	experiment	1	1	3	clock	2002	45	15	6	2	2	erasure	2	74			117		53					249	0	2	0	1	0	0	4	6	5	1	0	0	4		159
6.6.1	mac	0	2023-10-12	16:39:06	1	1	1	experiment	1	1	3	ISI	460	45	15	6	2	2	erasure	2	74			117		53					249	0	2	0	1	0	0	4	6	5	1	0	0	4		159
6.6.1	mac	0	2023-10-12	16:39:06	1	1	1	experiment	1	1	3	feedback	1000	45	15	6	2	2	erasure	2	74	140.5440000000000111413	1952	141		110	77	0.2157833229787143314	110	110	249	0	3	0	2	0	0	4	6	5	1	0	0	3		159
6.6.1	mac	0	2023-10-12	16:39:06	1	1	1	experiment	1	1	3	ITI	120	45	15	6	3	3	erasure	3	74			141		110					249	0	3	0	2	0	0	4	6	5	1	0	0	3		159
6.6.1	mac	0	2023-10-12	16:39:06	1	1	1	experiment	1	1	3	preFreeze	650	45	15	6	3	3	erasure	3	74			141		110					249	0	3	0	2	0	0	4	6	5	1	0	0	3		159
6.6.1	mac	0	2023-10-12	16:39:06	1	1	1	experiment	1	1	3	clock	2338	45	15	6	3	3	erasure	3	96			141		110					249	0	3	0	2	0	0	4	6	5	1	0	0	3		159
6.6.1	mac	0	2023-10-12	16:39:06	1	1	1	experiment	1	1	3	ISI	410	45	15	6	3	3	erasure	3	96			141		110					249	0	3	0	2	0	0	4	6	5	1	0	0	3		159
6.6.1	mac	0	2023-10-12	16:39:06	1	1	1	experiment	1	1	3	feedback	1000	45	15	6	3	3	erasure	3	96	243.9360000000000070486	3388	244		20	14	0.8860215830816937643	10	10	249	1	4	0	3	0	1	4	6	5	1	0	0	2		159
6.6.1	mac	0	2023-10-12	16:39:06	1	1	1	experiment	1	1	3	ITI	270	45	15	6	4	4	erasure	4	96			244		20					249	1	4	0	3	0	1	4	6	5	1	0	0	2		159
6.6.1	mac	0	2023-10-12	16:39:06	1	1	1	experiment	1	1	3	preFreeze	680	45	15	6	4	4	erasure	4	96			244		20					249	1	4	0	3	0	1	4	6	5	1	0	0	2		159
6.6.1	mac	0	2023-10-12	16:39:06	1	1	1	experiment	1	1	3	clock	2386	45	15	6	4	4	erasure	4	45			244		20					249	1	4	0	3	0	1	4	6	5	1	0	0	2		159
6.6.1	mac	0	2023-10-12	16:39:06	1	1	1	experiment	1	1	3	ISI	480	45	15	6	4	4	erasure	4	45			244		20					249	1	4	0	3	0	1	4	6	5	1	0	0	2		159
6.6.1	mac	0	2023-10-12	16:39:06	1	1	1	experiment	1	1	3	feedback	811	45	15	6	4	4	erasure	4	45	63.7920000000000015916	886	64		9	6.2999999999999998224	0.888886743199286733	10	10	249	0	5	0	4	0	1	4	6	5	1	0	0	1		159
