build	computer.platform	computer.touch	date	time	subject	group	sessionid	blockcode	blocknum	block	n_blocks	trialcode	latency	n_trials	block_length	best	trial	run_trial	block_type	list.triallist.currentindex	startPos	stim_center_deg	choose_stim	run_trial_dum	n_attention	n_erasure	n_no_erasure	n_clicks	require_attention	require_no_erasure	require_erasure	timeouts_remain	timeout_block	generate_new_erasure	n_curr_block
6.6.1	mac	0	2023-10-11	19:34:47	1	1	1	experiment	1	1	3	ITI	180	45	15	6	1	1	no_erasure	1	0			1	0	0	0		4	6	5	1	0	1	6
6.6.1	mac	0	2023-10-11	19:34:47	1	1	1	experiment	1	1	3	preFreeze	570	45	15	6	1	1	no_erasure	1	0			1	0	0	0		4	6	5	1	0	1	6
6.6.1	mac	0	2023-10-11	19:34:47	1	1	1	experiment	1	1	3	clock	1273	45	15	6	1	1	no_erasure	1	89			1	0	0	0		4	6	5	1	0	1	6
6.6.1	mac	0	2023-10-11	19:34:47	1	1	1	experiment	1	1	3	ISI	250	45	15	6	1	1	no_erasure	1	89			1	0	0	0		4	6	5	1	0	1	6
6.6.1	mac	0	2023-10-11	19:34:47	1	1	1	experiment	1	1	3	feedback	1000	45	15	6	1	1	no_erasure	1	89			2	0	0	1		4	6	5	1	0	0	5
6.6.1	mac	0	2023-10-11	19:34:47	1	1	1	experiment	1	1	3	ITI	220	45	15	6	2	2	no_erasure	2	89			2	0	0	1		4	6	5	1	0	0	5
6.6.1	mac	0	2023-10-11	19:34:47	1	1	1	experiment	1	1	3	preFreeze	580	45	15	6	2	2	no_erasure	2	89			2	0	0	1		4	6	5	1	0	0	5
6.6.1	mac	0	2023-10-11	19:34:47	1	1	1	experiment	1	1	3	clock	1002	45	15	6	2	2	no_erasure	2	21			2	0	0	1		4	6	5	1	0	0	5
6.6.1	mac	0	2023-10-11	19:34:47	1	1	1	experiment	1	1	3	ISI	390	45	15	6	2	2	no_erasure	2	21			2	0	0	1		4	6	5	1	0	0	5
6.6.1	mac	0	2023-10-11	19:34:47	1	1	1	experiment	1	1	3	feedback	1000	45	15	6	2	2	no_erasure	2	21			3	0	0	2		4	6	5	1	0	0	4
6.6.1	mac	0	2023-10-11	19:34:47	1	1	1	experiment	1	1	3	ITI	440	45	15	6	3	3	no_erasure	3	21			3	0	0	2		4	6	5	1	0	0	4
6.6.1	mac	0	2023-10-11	19:34:47	1	1	1	experiment	1	1	3	preFreeze	560	45	15	6	3	3	no_erasure	3	21			3	0	0	2		4	6	5	1	0	0	4
6.6.1	mac	0	2023-10-11	19:34:47	1	1	1	experiment	1	1	3	clock	705	45	15	6	3	3	no_erasure	3	10			3	0	0	2		4	6	5	1	0	0	4
6.6.1	mac	0	2023-10-11	19:34:47	1	1	1	experiment	1	1	3	ISI	220	45	15	6	3	3	no_erasure	3	10			3	0	0	2		4	6	5	1	0	0	4
6.6.1	mac	0	2023-10-11	19:34:47	1	1	1	experiment	1	1	3	feedback	1000	45	15	6	3	3	no_erasure	3	10			4	0	0	3		4	6	5	1	0	0	3
6.6.1	mac	0	2023-10-11	19:34:47	1	1	1	experiment	1	1	3	ITI	290	45	15	6	4	4	no_erasure	4	10			4	0	0	3		4	6	5	1	0	0	3
6.6.1	mac	0	2023-10-11	19:34:47	1	1	1	experiment	1	1	3	preFreeze	510	45	15	6	4	4	no_erasure	4	10			4	0	0	3		4	6	5	1	0	0	3
6.6.1	mac	0	2023-10-11	19:34:47	1	1	1	experiment	1	1	3	clock	459	45	15	6	4	4	no_erasure	4	35			4	0	0	3		4	6	5	1	0	0	3
6.6.1	mac	0	2023-10-11	19:34:47	1	1	1	experiment	1	1	3	ISI	460	45	15	6	4	4	no_erasure	4	35			4	0	0	3		4	6	5	1	0	0	3
6.6.1	mac	0	2023-10-11	19:34:47	1	1	1	experiment	1	1	3	feedback	1000	45	15	6	4	4	no_erasure	4	35			5	0	0	4		4	6	5	1	0	0	2
6.6.1	mac	0	2023-10-11	19:34:47	1	1	1	experiment	1	1	3	ITI	320	45	15	6	5	5	no_erasure	5	35			5	0	0	4		4	6	5	1	0	0	2
6.6.1	mac	0	2023-10-11	19:34:47	1	1	1	experiment	1	1	3	preFreeze	590	45	15	6	5	5	no_erasure	5	35			5	0	0	4		4	6	5	1	0	0	2
6.6.1	mac	0	2023-10-11	19:34:47	1	1	1	experiment	1	1	3	clock	267	45	15	6	5	5	no_erasure	5	12			5	0	0	4		4	6	5	1	0	0	2
6.6.1	mac	0	2023-10-11	19:34:47	1	1	1	experiment	1	1	3	ISI	580	45	15	6	5	5	no_erasure	5	12			5	0	0	4		4	6	5	1	0	0	2
6.6.1	mac	0	2023-10-11	19:34:47	1	1	1	experiment	1	1	3	feedback	1000	45	15	6	5	5	no_erasure	5	12			6	0	0	5		4	6	5	1	0	0	1
6.6.1	mac	0	2023-10-11	19:34:47	1	1	1	experiment	1	1	3	ITI	350	45	15	6	6	6	no_erasure	6	12			6	0	0	5		4	6	5	1	0	0	1
6.6.1	mac	0	2023-10-11	19:34:47	1	1	1	experiment	1	1	3	preFreeze	600	45	15	6	6	6	no_erasure	6	12			6	0	0	5		4	6	5	1	0	0	1
6.6.1	mac	0	2023-10-11	19:34:47	1	1	1	experiment	1	1	3	clock	712	45	15	6	6	6	no_erasure	6	83			6	0	0	5		4	6	5	1	0	0	1
6.6.1	mac	0	2023-10-11	19:34:47	1	1	1	experiment	1	1	3	ISI	480	45	15	6	6	6	no_erasure	6	83			6	0	0	5		4	6	5	1	0	0	1
6.6.1	mac	0	2023-10-11	19:34:47	1	1	1	experiment	1	1	3	feedback	1000	45	15	6	6	6	no_erasure	6	83			7	0	0	6		4	6	5	1	0	0	0
6.6.1	mac	0	2023-10-11	19:34:47	1	1	1	experiment	1	1	3	ITI	230	45	15	6	7	7	attention	7	83	0	0	7	0	0	6	0	4	6	5	1	0	1	4
6.6.1	mac	0	2023-10-11	19:34:47	1	1	1	experiment	1	1	3	preFreeze	520	45	15	6	7	7	attention	7	83	0	0	7	0	0	6	0	4	6	5	1	0	1	4
6.6.1	mac	0	2023-10-11	19:34:47	1	1	1	experiment	1	1	3	clock	3064	45	15	6	7	7	attention	7	41	0	0	7	0	0	6	0	4	6	5	1	0	1	4
6.6.1	mac	0	2023-10-11	19:34:47	1	1	1	experiment	1	1	3	ISI	410	45	15	6	7	7	attention	7	41	0	0	7	0	0	6	0	4	6	5	1	0	1	4
6.6.1	mac	0	2023-10-11	19:34:47	1	1	1	experiment	1	1	3	feedback	1000	45	15	6	7	7	attention	7	41	0	0	8	1	0	6	0	4	6	5	1	0	0	3
6.6.1	mac	0	2023-10-11	19:34:47	1	1	1	experiment	1	1	3	ITI	210	45	15	6	8	8	attention	8	41	0	0	8	1	0	6	0	4	6	5	1	0	0	3
6.6.1	mac	0	2023-10-11	19:34:47	1	1	1	experiment	1	1	3	preFreeze	690	45	15	6	8	8	attention	8	41	0	0	8	1	0	6	0	4	6	5	1	0	0	3
6.6.1	mac	0	2023-10-11	19:34:47	1	1	1	experiment	1	1	3	clock	587	45	15	6	8	8	attention	8	23	0	0	8	1	0	6	0	4	6	5	1	0	0	3
