build	computer.platform	computer.touch	date	time	subject	group	sessionid	blockcode	blocknum	block	n_blocks	trialcode	latency	n_trials	block_length	best	trial	run_trial	block_type	list.triallist.currentindex	startPos	pos_shifted	rt_shifted	rt_index	list.curr_values.nextvalue	mag	ev	rng	inc	inc_rg	stim_center_deg	choose_stim	run_trial_dum	n_attention	n_erasure	n_no_erasure	n_clicks	require_attention	require_no_erasure	require_erasure	timeouts_remain	timeout_block	generate_new_erasure	n_curr_block	list.degrees_att.currentvalue	list.degrees_era.currentvalue
6.6.1	mac	0	2023-10-12	16:17:35	1	1	1	experiment	1	1	3	ITI	370	45	15	6	1	1	erasure	1	0					0					279	0	1	0	0	0	0	4	6	5	1	0	1	5		189
6.6.1	mac	0	2023-10-12	16:17:35	1	1	1	experiment	1	1	3	preFreeze	660	45	15	6	1	1	erasure	1	0					0					279	0	1	0	0	0	0	4	6	5	1	0	1	5		189
6.6.1	mac	0	2023-10-12	16:17:35	1	1	1	experiment	1	1	3	clock	306	45	15	6	1	1	erasure	1	66					0					279	0	1	0	0	0	0	4	6	5	1	0	1	5		189
6.6.1	mac	0	2023-10-12	16:17:35	1	1	1	experiment	1	1	3	ISI	580	45	15	6	1	1	erasure	1	66					0					279	0	1	0	0	0	0	4	6	5	1	0	1	5		189
6.6.1	mac	0	2023-10-12	16:17:35	1	1	1	experiment	1	1	3	feedback	1000	45	15	6	1	1	erasure	1	66	349.6320000000000050022	4856	350		38	26.5999999999999978684	0.2935525852473342412	38	38	279	0	2	0	1	0	0	4	6	5	1	0	0	4		189
6.6.1	mac	0	2023-10-12	16:17:35	1	1	1	experiment	1	1	3	ITI	120	45	15	6	2	2	erasure	2	66			350		38					279	0	2	0	1	0	0	4	6	5	1	0	0	4		189
6.6.1	mac	0	2023-10-12	16:17:35	1	1	1	experiment	1	1	3	preFreeze	530	45	15	6	2	2	erasure	2	66			350		38					279	0	2	0	1	0	0	4	6	5	1	0	0	4		189
6.6.1	mac	0	2023-10-12	16:17:35	1	1	1	experiment	1	1	3	clock	306	45	15	6	2	2	erasure	2	66			350		38					279	0	2	0	1	0	0	4	6	5	1	0	0	4		189
6.6.1	mac	0	2023-10-12	16:17:35	1	1	1	experiment	1	1	3	ISI	600	45	15	6	2	2	erasure	2	66			350		38					279	0	2	0	1	0	0	4	6	5	1	0	0	4		189
6.6.1	mac	0	2023-10-12	16:17:35	1	1	1	experiment	1	1	3	feedback	1000	45	15	6	2	2	erasure	2	66	349.6320000000000050022	4856	350		37	25.8999999999999985789	0.0395977178215043898	37	37	279	0	3	0	2	0	0	4	6	5	1	0	0	3		189
6.6.1	mac	0	2023-10-12	16:17:35	1	1	1	experiment	1	1	3	ITI	160	45	15	6	3	3	erasure	3	66			350		37					279	0	3	0	2	0	0	4	6	5	1	0	0	3		189
6.6.1	mac	0	2023-10-12	16:17:35	1	1	1	experiment	1	1	3	preFreeze	670	45	15	6	3	3	erasure	3	66			350		37					279	0	3	0	2	0	0	4	6	5	1	0	0	3		189
6.6.1	mac	0	2023-10-12	16:17:35	1	1	1	experiment	1	1	3	clock	306	45	15	6	3	3	erasure	3	85			350		37					279	0	3	0	2	0	0	4	6	5	1	0	0	3		189
6.6.1	mac	0	2023-10-12	16:17:35	1	1	1	experiment	1	1	3	ISI	560	45	15	6	3	3	erasure	3	85			350		37					279	0	3	0	2	0	0	4	6	5	1	0	0	3		189
6.6.1	mac	0	2023-10-12	16:17:35	1	1	1	experiment	1	1	3	feedback	1000	45	15	6	3	3	erasure	3	85	58.0319999999999964757	806	58		8	5.5999999999999996447	0.8793049689566960758	10	10	279	0	4	0	3	0	0	4	6	5	1	0	0	2		189
6.6.1	mac	0	2023-10-12	16:17:35	1	1	1	experiment	1	1	3	ITI	390	45	15	6	4	4	erasure	4	85			58		8					279	0	4	0	3	0	0	4	6	5	1	0	0	2		189
6.6.1	mac	0	2023-10-12	16:17:35	1	1	1	experiment	1	1	3	preFreeze	630	45	15	6	4	4	erasure	4	85			58		8					279	0	4	0	3	0	0	4	6	5	1	0	0	2		189
6.6.1	mac	0	2023-10-12	16:17:35	1	1	1	experiment	1	1	3	clock	418	45	15	6	4	4	erasure	4	26			58		8					279	0	4	0	3	0	0	4	6	5	1	0	0	2		189
6.6.1	mac	0	2023-10-12	16:17:35	1	1	1	experiment	1	1	3	ISI	410	45	15	6	4	4	erasure	4	26			58		8					279	0	4	0	3	0	0	4	6	5	1	0	0	2		189
6.6.1	mac	0	2023-10-12	16:17:35	1	1	1	experiment	1	1	3	feedback	1000	45	15	6	4	4	erasure	4	26	213.6959999999999979536	2968	214		100	70	0.9507788771183180998	10	10	279	0	5	0	4	0	0	4	6	5	1	0	0	1		189
6.6.1	mac	0	2023-10-12	16:17:35	1	1	1	experiment	1	1	3	ITI	200	45	15	6	5	5	erasure	5	26			214		100					279	0	5	0	4	0	0	4	6	5	1	0	0	1		189
6.6.1	mac	0	2023-10-12	16:17:35	1	1	1	experiment	1	1	3	preFreeze	540	45	15	6	5	5	erasure	5	26			214		100					279	0	5	0	4	0	0	4	6	5	1	0	0	1		189
6.6.1	mac	0	2023-10-12	16:17:35	1	1	1	experiment	1	1	3	clock	305	45	15	6	5	5	erasure	5	44			214		100					279	0	5	0	4	0	0	4	6	5	1	0	0	1		189
6.6.1	mac	0	2023-10-12	16:17:35	1	1	1	experiment	1	1	3	ISI	240	45	15	6	5	5	erasure	5	44			214		100					279	0	5	0	4	0	0	4	6	5	1	0	0	1		189
6.6.1	mac	0	2023-10-12	16:17:35	1	1	1	experiment	1	1	3	feedback	1000	45	15	6	5	5	erasure	5	44	270.3600000000000136424	3755	270		8	5.5999999999999996447	0.5827705086168764037	8	10	279	1	6	0	5	0	1	4	6	5	1	0	0	0		189
6.6.1	mac	0	2023-10-12	16:17:35	1	1	1	experiment	1	1	3	ITI	130	45	15	6	6	6	erasure	6	44			270		8					279	1	6	0	5	0	1	4	6	5	1	0	0	0		189
6.6.1	mac	0	2023-10-12	16:17:35	1	1	1	experiment	1	1	3	preFreeze	510	45	15	6	6	6	erasure	6	44			270		8					279	1	6	0	5	0	1	4	6	5	1	0	0	0		189
6.6.1	mac	0	2023-10-12	16:17:35	1	1	1	experiment	1	1	3	clock	375	45	15	6	6	6	erasure	6	84			270		8					279	1	6	0	5	0	1	4	6	5	1	0	0	0		189
6.6.1	mac	0	2023-10-12	16:17:35	1	1	1	experiment	1	1	3	ISI	420	45	15	6	6	6	erasure	6	84			270		8					279	1	6	0	5	0	1	4	6	5	1	0	0	0		189
6.6.1	mac	0	2023-10-12	16:17:35	1	1	1	experiment	1	1	3	feedback	1000	45	15	6	6	6	erasure	6	84	59.3999999999999985789	825	59		15	10.5	0.8319856470525230918	10	10	279	0	7	0	6	0	1	4	6	5	1	0	0	-1		189
6.6.1	mac	0	2023-10-12	16:17:35	1	1	1	experiment	1	1	3	ITI	260	45	15	6	7	7	erasure	7	84			59		15					279	0	7	0	6	0	1	4	6	5	1	0	0	-1		189
6.6.1	mac	0	2023-10-12	16:17:35	1	1	1	experiment	1	1	3	preFreeze	520	45	15	6	7	7	erasure	7	84			59		15					279	0	7	0	6	0	1	4	6	5	1	0	0	-1		189
6.6.1	mac	0	2023-10-12	16:17:35	1	1	1	experiment	1	1	3	clock	312	45	15	6	7	7	erasure	7	61			59		15					279	0	7	0	6	0	1	4	6	5	1	0	0	-1		189
6.6.1	mac	0	2023-10-12	16:17:35	1	1	1	experiment	1	1	3	ISI	390	45	15	6	7	7	erasure	7	61			59		15					279	0	7	0	6	0	1	4	6	5	1	0	0	-1		189
6.6.1	mac	0	2023-10-12	16:17:35	1	1	1	experiment	1	1	3	feedback	1000	45	15	6	7	7	erasure	7	61	332.0640000000000213731	4612	332		13	9.0999999999999996447	0.3979132821312903467	13	13	279	0	8	0	7	0	1	4	6	5	1	0	0	-2		189
6.6.1	mac	0	2023-10-12	16:17:35	1	1	1	experiment	1	1	3	ITI	430	45	15	6	8	8	erasure	8	61			332		13					279	0	8	0	7	0	1	4	6	5	1	0	0	-2		189
6.6.1	mac	0	2023-10-12	16:17:35	1	1	1	experiment	1	1	3	preFreeze	550	45	15	6	8	8	erasure	8	61			332		13					279	0	8	0	7	0	1	4	6	5	1	0	0	-2		189
6.6.1	mac	0	2023-10-12	16:17:35	1	1	1	experiment	1	1	3	clock	306	45	15	6	8	8	erasure	8	93			332		13					279	0	8	0	7	0	1	4	6	5	1	0	0	-2		189
6.6.1	mac	0	2023-10-12	16:17:35	1	1	1	experiment	1	1	3	ISI	540	45	15	6	8	8	erasure	8	93			332		13					279	0	8	0	7	0	1	4	6	5	1	0	0	-2		189
6.6.1	mac	0	2023-10-12	16:17:35	1	1	1	experiment	1	1	3	feedback	1000	45	15	6	8	8	erasure	8	93	86.8319999999999936335	1206	87		4	2.7999999999999998224	0.2316644464693182193	4	10	279	0	9	0	8	0	1	4	6	5	1	0	0	-3		189
6.6.1	mac	0	2023-10-12	16:17:35	1	1	1	experiment	1	1	3	ITI	150	45	15	6	9	9	erasure	9	93			87		4					279	0	9	0	8	0	1	4	6	5	1	0	0	-3		189
6.6.1	mac	0	2023-10-12	16:17:35	1	1	1	experiment	1	1	3	preFreeze	680	45	15	6	9	9	erasure	9	93			87		4					279	0	9	0	8	0	1	4	6	5	1	0	0	-3		189
6.6.1	mac	0	2023-10-12	16:17:35	1	1	1	experiment	1	1	3	clock	357	45	15	6	9	9	erasure	9	37			87		4					279	0	9	0	8	0	1	4	6	5	1	0	0	-3		189
6.6.1	mac	0	2023-10-12	16:17:35	1	1	1	experiment	1	1	3	ISI	400	45	15	6	9	9	erasure	9	37			87		4					279	0	9	0	8	0	1	4	6	5	1	0	0	-3		189
6.6.1	mac	0	2023-10-12	16:17:35	1	1	1	experiment	1	1	3	feedback	1000	45	15	6	9	9	erasure	9	37	248.903999999999996362	3457	249		54	37.7999999999999971578	0.8215119188701528463	10	10	279	0	10	0	9	0	1	4	6	5	1	0	0	-4		189
6.6.1	mac	0	2023-10-12	16:17:35	1	1	1	experiment	1	1	3	ITI	460	45	15	6	10	10	erasure	10	37			249		54					279	0	10	0	9	0	1	4	6	5	1	0	0	-4		189
6.6.1	mac	0	2023-10-12	16:17:35	1	1	1	experiment	1	1	3	preFreeze	590	45	15	6	10	10	erasure	10	37			249		54					279	0	10	0	9	0	1	4	6	5	1	0	0	-4		189
6.6.1	mac	0	2023-10-12	16:17:35	1	1	1	experiment	1	1	3	clock	289	45	15	6	10	10	erasure	10	64			249		54					279	0	10	0	9	0	1	4	6	5	1	0	0	-4		189
6.6.1	mac	0	2023-10-12	16:17:35	1	1	1	experiment	1	1	3	ISI	300	45	15	6	10	10	erasure	10	64			249		54					279	0	10	0	9	0	1	4	6	5	1	0	0	-4		189
6.6.1	mac	0	2023-10-12	16:17:35	1	1	1	experiment	1	1	3	feedback	839	45	15	6	10	10	erasure	10	64	341.2080000000000268301	4739	341		13	9.0999999999999996447	0.7531263944118112841	10	10	279	0	11	0	10	0	1	4	6	5	1	0	0	-5		189
