build	computer.platform	computer.touch	date	time	subject	group	sessionid	blockcode	blocknum	block	n_blocks	trialcode	latency	n_trials	block_length	best	lower_quartile	upper_quartile	list.curr_values_temp.median	erasure_index	erasure_RT	erasure_value	erasure_degrees	trial	list.curr_trials.items.1	list.curr_trials.items.360	list.curr_trials.currentvalue	run_trial	block_type	list.triallist.currentindex	startPos	pos_shifted	rt_shifted	rt_index	list.curr_values.currentvalue	mag	ev	rng	inc	inc_rg	stim_center_deg	choose_stim	run_trial_dum	n_attention	n_erasure	n_no_erasure	n_clicks	require_attention	require_no_erasure	require_erasure	timeouts_remain	timeout_block	generate_new_erasure	n_curr_block	list.degrees_att.currentvalue	list.degrees_era.currentvalue
6.6.1	mac	0	2023-10-16	17:21:38	1	1	1	experiment	1	1	4	ITI	160	45	10	6	11	75.5	32	77	109	38		1	2	2		1	erasure	1	0					0					198	0	1	0	0	0	0	3	3	4	1	0	1	4	243	108
6.6.1	mac	0	2023-10-16	17:21:38	1	1	1	experiment	1	1	4	preFreeze	670	45	10	6	11	75.5	32	77	109	38		1	2	2		1	erasure	1	0					0					198	0	1	0	0	0	0	3	3	4	1	0	1	4	243	108
6.6.1	mac	0	2023-10-16	17:21:38	1	1	1	experiment	1	1	4	clock	258	45	10	6	11	75.5	32	77	109	38		1	2	2		1	erasure	1	93					0					198	0	1	0	0	0	0	3	3	4	1	0	1	4	243	108
6.6.1	mac	0	2023-10-16	17:21:38	1	1	1	experiment	1	1	4	ISI	330	45	10	6	11	75.5	32	77	109	38		1	2	2		1	erasure	1	93					0					198	0	1	0	0	0	0	3	3	4	1	0	1	4	243	108
6.6.1	mac	0	2023-10-16	17:21:38	1	1	1	experiment	1	1	4	feedback	1000	45	10	6	11	75.5	32	77	109	38		1	2	2		1	erasure	1	93	83.3760000000000047748	1158	83		7	4.8999999999999994671	0.9422028050623374451	10	10	198	0	2	0	1	0	0	3	3	4	1	0	0	3	243	108
6.6.1	mac	0	2023-10-16	17:21:38	1	1	1	experiment	1	1	4	ITI	150	45	10	6	11	75.5	32	77	109	38		2	3	3		2	erasure	2	93			83		7					198	0	2	0	1	0	0	3	3	4	1	0	0	3	243	108
6.6.1	mac	0	2023-10-16	17:21:38	1	1	1	experiment	1	1	4	preFreeze	630	45	10	6	11	75.5	32	77	109	38		2	3	3		2	erasure	2	93			83		7					198	0	2	0	1	0	0	3	3	4	1	0	0	3	243	108
6.6.1	mac	0	2023-10-16	17:21:38	1	1	1	experiment	1	1	4	clock	251	45	10	6	11	75.5	32	77	109	38		2	3	3		2	erasure	2	0			83		7					198	0	2	0	1	0	0	3	3	4	1	0	0	3	243	108
6.6.1	mac	0	2023-10-16	17:21:38	1	1	1	experiment	1	1	4	ISI	390	45	10	6	11	75.5	32	77	109	38		2	3	3		2	erasure	2	0			83		7					198	0	2	0	1	0	0	3	3	4	1	0	0	3	243	108
6.6.1	mac	0	2023-10-16	17:21:38	1	1	1	experiment	1	1	4	feedback	1000	45	10	6	11	75.5	32	77	109	38		2	3	3		2	erasure	2	0	108.0720000000000027285	1501	108		38	26.5999999999999978684	0.2968819207271751748	38	38	198	0	3	0	2	0	0	3	3	4	1	0	0	2	243	108
6.6.1	mac	0	2023-10-16	17:21:38	1	1	1	experiment	1	1	4	ITI	420	45	10	6	11	75.5	32	77	109	38		3	4	4		3	erasure	3	0			108		38					198	0	3	0	2	0	0	3	3	4	1	0	0	2	243	108
6.6.1	mac	0	2023-10-16	17:21:38	1	1	1	experiment	1	1	4	preFreeze	700	45	10	6	11	75.5	32	77	109	38		3	4	4		3	erasure	3	0			108		38					198	0	3	0	2	0	0	3	3	4	1	0	0	2	243	108
6.6.1	mac	0	2023-10-16	17:21:38	1	1	1	experiment	1	1	4	clock	135	45	10	6	11	75.5	32	77	109	38		3	4	4		3	erasure	3	30			108		38					198	0	3	0	2	0	0	3	3	4	1	0	0	2	243	108
6.6.1	mac	0	2023-10-16	17:21:38	1	1	1	experiment	1	1	4	ISI	560	45	10	6	11	75.5	32	77	109	38		3	4	4		3	erasure	3	30			108		38					198	0	3	0	2	0	0	3	3	4	1	0	0	2	243	108
6.6.1	mac	0	2023-10-16	17:21:38	1	1	1	experiment	1	1	4	feedback	1000	45	10	6	11	75.5	32	77	109	38		3	4	4		3	erasure	3	30	207.7199999999999988631	2885	208		116	81.1999999999999886313	0.0114807065137384236	116	116	198	1	4	0	3	0	1	3	3	4	1	0	0	1	243	108
6.6.1	mac	0	2023-10-16	17:21:38	1	1	1	experiment	1	1	4	ITI	240	45	10	6	11	75.5	32	77	109	38		4	5	5		4	erasure	4	30			208		116					198	1	4	0	3	0	1	3	3	4	1	0	0	1	243	108
6.6.1	mac	0	2023-10-16	17:21:38	1	1	1	experiment	1	1	4	preFreeze	560	45	10	6	11	75.5	32	77	109	38		4	5	5		4	erasure	4	30			208		116					198	1	4	0	3	0	1	3	3	4	1	0	0	1	243	108
6.6.1	mac	0	2023-10-16	17:21:38	1	1	1	experiment	1	1	4	clock	276	45	10	6	11	75.5	32	77	109	38		4	5	5		4	erasure	4	91			208		116					198	1	4	0	3	0	1	3	3	4	1	0	0	1	243	108
6.6.1	mac	0	2023-10-16	17:21:38	1	1	1	experiment	1	1	4	ISI	490	45	10	6	11	75.5	32	77	109	38		4	5	5		4	erasure	4	91			208		116					198	1	4	0	3	0	1	3	3	4	1	0	0	1	243	108
6.6.1	mac	0	2023-10-16	17:21:38	1	1	1	experiment	1	1	4	feedback	1000	45	10	6	11	75.5	32	77	109	38		4	5	5		4	erasure	4	91	77.471999999999994202	1076	77		5	3.5	0.6862769244905274624	5	10	198	0	5	0	4	0	1	3	3	4	1	0	0	0	243	108
6.6.1	mac	0	2023-10-16	17:21:38	1	1	1	experiment	1	1	4	ITI	190	45	10	6	11	75.5	32	77	109	38		5	6	6		5	no_erasure	5	91			77		5					198		5	0	4	0	1	3	3	4	0	1	0	1	243	108
6.6.1	mac	0	2023-10-16	17:21:38	1	1	1	experiment	1	1	4	preFreeze	520	45	10	6	11	75.5	32	77	109	38		5	6	6		5	no_erasure	5	91			77		5					198		5	0	4	0	1	3	3	4	0	1	0	1	243	108
6.6.1	mac	0	2023-10-16	17:21:38	1	1	1	experiment	1	1	4	clock	203	45	10	6	11	75.5	32	77	109	38		5	6	6		5	no_erasure	5	1			77		5					198		5	0	4	0	1	3	3	4	0	1	0	1	243	108
6.6.1	mac	0	2023-10-16	17:21:38	1	1	1	experiment	1	1	4	ISI	420	45	10	6	11	75.5	32	77	109	38		5	6	6		5	no_erasure	5	1			77		5					198		5	0	4	0	1	3	3	4	0	1	0	1	243	108
6.6.1	mac	0	2023-10-16	17:21:38	1	1	1	experiment	1	1	4	feedback	1000	45	10	6	11	75.5	32	77	109	38		5	6	6		5	no_erasure	5	1	108.2159999999999939746	1503	108		21	14.6999999999999992895	0.3507550150041363612	21	21	198		6	0	4	1	1	3	3	4	0	1	0	0	243	108
6.6.1	mac	0	2023-10-16	17:21:38	1	1	1	experiment	1	1	4	ITI	380	45	10	6	11	75.5	32	77	109	38		6	7	7		6	no_erasure	6	1			108		21					198		6	0	4	1		3	3	4	1	0	1	2	243	108
6.6.1	mac	0	2023-10-16	17:21:38	1	1	1	experiment	1	1	4	preFreeze	510	45	10	6	11	75.5	32	77	109	38		6	7	7		6	no_erasure	6	1			108		21					198		6	0	4	1		3	3	4	1	0	1	2	243	108
6.6.1	mac	0	2023-10-16	17:21:38	1	1	1	experiment	1	1	4	clock	345	45	10	6	11	75.5	32	77	109	38		6	7	7		6	no_erasure	6	25			108		21					198		6	0	4	1		3	3	4	1	0	1	2	243	108
6.6.1	mac	0	2023-10-16	17:21:38	1	1	1	experiment	1	1	4	ISI	440	45	10	6	11	75.5	32	77	109	38		6	7	7		6	no_erasure	6	25			108		21					198		6	0	4	1		3	3	4	1	0	1	2	243	108
6.6.1	mac	0	2023-10-16	17:21:38	1	1	1	experiment	1	1	4	feedback	1000	45	10	6	11	75.5	32	77	109	38		6	7	7		6	no_erasure	6	25	204.8400000000000034106	2845	205		152	106.3999999999999914735	0.8269781174201001894	10	10	198		7	0	4	2		3	3	4	1	0	0	1	243	108
6.6.1	mac	0	2023-10-16	17:21:38	1	1	1	experiment	1	1	4	ITI	250	45	10	6	11	75.5	32	77	109	38		7	8	8		7	no_erasure	7	25			205		152					198		7	0	4	2		3	3	4	1	0	0	1	243	108
6.6.1	mac	0	2023-10-16	17:21:38	1	1	1	experiment	1	1	4	preFreeze	530	45	10	6	11	75.5	32	77	109	38		7	8	8		7	no_erasure	7	25			205		152					198		7	0	4	2		3	3	4	1	0	0	1	243	108
6.6.1	mac	0	2023-10-16	17:21:38	1	1	1	experiment	1	1	4	clock	245	45	10	6	11	75.5	32	77	109	38		7	8	8		7	no_erasure	7	29			205		152					198		7	0	4	2		3	3	4	1	0	0	1	243	108
6.6.1	mac	0	2023-10-16	17:21:38	1	1	1	experiment	1	1	4	ISI	230	45	10	6	11	75.5	32	77	109	38		7	8	8		7	no_erasure	7	29			205		152					198		7	0	4	2		3	3	4	1	0	0	1	243	108
6.6.1	mac	0	2023-10-16	17:21:38	1	1	1	experiment	1	1	4	feedback	1000	45	10	6	11	75.5	32	77	109	38		7	8	8		7	no_erasure	7	29	212.0399999999999920419	2945	212		124	86.7999999999999971578	0.7169478423234419973	10	10	198		8	0	4	3		3	3	4	1	0	0	0	243	108
6.6.1	mac	0	2023-10-16	17:21:38	1	1	1	experiment	1	1	4	ITI	430	45	10	6	11	75.5	32	77	109	38		8	9	9		8	attention	8	29			212		124					333	0	8	0	4	3	0	3	3	4	1	0	1	3	243	108
6.6.1	mac	0	2023-10-16	17:21:38	1	1	1	experiment	1	1	4	preFreeze	580	45	10	6	11	75.5	32	77	109	38		8	9	9		8	attention	8	29			212		124					333	0	8	0	4	3	0	3	3	4	1	0	1	3	243	108
6.6.1	mac	0	2023-10-16	17:21:38	1	1	1	experiment	1	1	4	clock	229	45	10	6	11	75.5	32	77	109	38		8	9	9		8	attention	8	1			212		124					333	0	8	0	4	3	0	3	3	4	1	0	1	3	243	108
6.6.1	mac	0	2023-10-16	17:21:38	1	1	1	experiment	1	1	4	ISI	480	45	10	6	11	75.5	32	77	109	38		8	9	9		8	attention	8	1			212		124					333	0	8	0	4	3	0	3	3	4	1	0	1	3	243	108
6.6.1	mac	0	2023-10-16	17:21:38	1	1	1	experiment	1	1	4	feedback	1000	45	10	6	11	75.5	32	77	109	38		8	9	9		8	attention	8	1	110.0879999999999938609	1529	110		9	6.2999999999999998224	0.6680078058661911289	9	10	333	0	9	1	4	3	0	3	3	4	1	0	0	2	243	108
6.6.1	mac	0	2023-10-16	17:21:38	1	1	1	experiment	1	1	4	ITI	470	45	10	6	11	75.5	32	77	109	38		9	10	10		9	attention	9	1			110		9					333	0	9	1	4	3	0	3	3	4	1	0	0	2	243	108
6.6.1	mac	0	2023-10-16	17:21:38	1	1	1	experiment	1	1	4	preFreeze	690	45	10	6	11	75.5	32	77	109	38		9	10	10		9	attention	9	1			110		9					333	0	9	1	4	3	0	3	3	4	1	0	0	2	243	108
6.6.1	mac	0	2023-10-16	17:21:38	1	1	1	experiment	1	1	4	clock	18	45	10	6	11	75.5	32	77	109	38		9	10	10		9	attention	9	76			110		9					333	0	9	1	4	3	0	3	3	4	1	0	0	2	243	108
6.6.1	mac	0	2023-10-16	17:21:38	1	1	1	experiment	1	1	4	ISI	530	45	10	6	11	75.5	32	77	109	38		9	10	10		9	attention	9	76			110		9					333	0	9	1	4	3	0	3	3	4	1	0	0	2	243	108
6.6.1	mac	0	2023-10-16	17:21:38	1	1	1	experiment	1	1	4	feedback	1000	45	10	6	11	75.5	32	77	109	38		9	10	10		9	attention	9	76	4.8959999999999999076	68	5		29	20.2999999999999971578	0.6013362863104176892	29	29	333	0	10	2	4	3	0	3	3	4	1	0	0	1	243	108
6.6.1	mac	0	2023-10-16	17:21:38	1	1	1	experiment	1	1	4	ITI	290	45	10	6	11	75.5	32	77	109	38		10	11	11		10	attention	10	76			5		29					333	0	10	2	4	3	0	3	3	4	1	0	0	1	243	108
6.6.1	mac	0	2023-10-16	17:21:38	1	1	1	experiment	1	1	4	preFreeze	680	45	10	6	11	75.5	32	77	109	38		10	11	11		10	attention	10	76			5		29					333	0	10	2	4	3	0	3	3	4	1	0	0	1	243	108
6.6.1	mac	0	2023-10-16	17:21:38	1	1	1	experiment	1	1	4	clock	143	45	10	6	11	75.5	32	77	109	38		10	11	11		10	attention	10	77			5		29					333	0	10	2	4	3	0	3	3	4	1	0	0	1	243	108
6.6.1	mac	0	2023-10-16	17:21:38	1	1	1	experiment	1	1	4	ISI	550	45	10	6	11	75.5	32	77	109	38		10	11	11		10	attention	10	77			5		29					333	0	10	2	4	3	0	3	3	4	1	0	0	1	243	108
6.6.1	mac	0	2023-10-16	17:21:38	1	1	1	experiment	1	1	4	feedback	1000	45	10	6	11	75.5	32	77	109	38		10	11	11		10	attention	10	77	17.4959999999999986642	243	17		32	22.3999999999999985789	0.7232087074600180854	10	10	333	0	11	3	4	3	0	3	3	4	1	0	0	0	243	108
6.6.1	mac	0	2023-10-16	17:21:38	1	1	1	experiment	2	2	4	ITI	280	45	10	6	11	75.5	32	246	109	38		11	13	13		1	no_erasure	1	77			17		32					333		1	0	0	0		3	3	4	0	1	0	1	243	108
6.6.1	mac	0	2023-10-16	17:21:38	1	1	1	experiment	2	2	4	preFreeze	540	45	10	6	11	75.5	32	246	109	38		11	13	13		1	no_erasure	1	77			17		32					333		1	0	0	0		3	3	4	0	1	0	1	243	108
6.6.1	mac	0	2023-10-16	17:21:38	1	1	1	experiment	2	2	4	clock	366	45	10	6	11	75.5	32	246	109	38		11	13	13		1	no_erasure	1	24			17		32					333		1	0	0	0		3	3	4	0	1	0	1	243	108
6.6.1	mac	0	2023-10-16	17:21:38	1	1	1	experiment	2	2	4	ISI	510	45	10	6	11	75.5	32	246	109	38		11	13	13		1	no_erasure	1	24			17		32					333		1	0	0	0		3	3	4	0	1	0	1	243	108
6.6.1	mac	0	2023-10-16	17:21:38	1	1	1	experiment	2	2	4	feedback	1000	45	10	6	11	75.5	32	246	109	38		11	13	13		1	no_erasure	1	24	202.7520000000000095497	2816	203		162	113.3999999999999914735	0.2182160181035790736	162	150	333		2	0	0	1		3	3	4	0	1	0	0	243	108
6.6.1	mac	0	2023-10-16	17:21:38	1	1	1	experiment	2	2	4	ITI	180	45	10	6	11	75.5	32	246	109	38		12	14	14		2	attention	2	24			203		162					333	0	2	0	0	1	0	3	3	4	1	0	1	3	243	108
6.6.1	mac	0	2023-10-16	17:21:38	1	1	1	experiment	2	2	4	preFreeze	500	45	10	6	11	75.5	32	246	109	38		12	14	14		2	attention	2	24			203		162					333	0	2	0	0	1	0	3	3	4	1	0	1	3	243	108
6.6.1	mac	0	2023-10-16	17:21:38	1	1	1	experiment	2	2	4	clock	297	45	10	6	11	75.5	32	246	109	38		12	14	14		2	attention	2	61			203		162					333	0	2	0	0	1	0	3	3	4	1	0	1	3	243	108
6.6.1	mac	0	2023-10-16	17:21:38	1	1	1	experiment	2	2	4	ISI	220	45	10	6	11	75.5	32	246	109	38		12	14	14		2	attention	2	61			203		162					333	0	2	0	0	1	0	3	3	4	1	0	1	3	243	108
6.6.1	mac	0	2023-10-16	17:21:38	1	1	1	experiment	2	2	4	feedback	1000	45	10	6	11	75.5	32	246	109	38		12	14	14		2	attention	2	61	330.9839999999999804459	4597	331		11	7.6999999999999992895	0.8483990623728370206	10	10	333	1	3	1	0	1	1	3	3	4	1	0	0	2	243	108
6.6.1	mac	0	2023-10-16	17:21:38	1	1	1	experiment	2	2	4	ITI	169	45	10	6	11	75.5	32	246	109	38		13	15	15		3	attention	3	61			331		11					333	1	3	1	0	1	1	3	3	4	1	0	0	2	243	108
