build	computer.platform	computer.touch	date	time	subject	group	sessionid	blockcode	blocknum	block	n_blocks	trialcode	latency	n_trials	block_length	best	trial	run_trial	block_type	list.triallist.currentindex	startPos	pos_shifted	rt_shifted	rt_index	list.curr_values.nextvalue	mag	ev	rng	inc	inc_rg	stim_center_deg	choose_stim	run_trial_dum	n_attention	n_erasure	n_no_erasure	n_clicks	require_attention	require_no_erasure	require_erasure	timeouts_remain	timeout_block	generate_new_erasure	n_curr_block	list.degrees_att.currentvalue	list.degrees_era.currentvalue
6.6.1	mac	0	2023-10-12	15:54:53	1	1	1	experiment	1	1	3	ITI	270	45	15	6	1	1	attention	1	0					0					149	0	1	0	0	0	0	4	6	5	1	0	1	4	59	
6.6.1	mac	0	2023-10-12	15:54:53	1	1	1	experiment	1	1	3	preFreeze	550	45	15	6	1	1	attention	1	0					0					149	0	1	0	0	0	0	4	6	5	1	0	1	4	59	
6.6.1	mac	0	2023-10-12	15:54:53	1	1	1	experiment	1	1	3	clock	406	45	15	6	1	1	attention	1	60					0					149	0	1	0	0	0	0	4	6	5	1	0	1	4	59	
6.6.1	mac	0	2023-10-12	15:54:53	1	1	1	experiment	1	1	3	ISI	330	45	15	6	1	1	attention	1	60					0					149	0	1	0	0	0	0	4	6	5	1	0	1	4	59	
6.6.1	mac	0	2023-10-12	15:54:53	1	1	1	experiment	1	1	3	feedback	1000	45	15	6	1	1	attention	1	60	335.2320000000000277396	4656	335		28	19.5999999999999978684	0.9981800764794880321	10	10	149	0	2	1	0	0	0	4	6	5	1	0	0	3	59	
6.6.1	mac	0	2023-10-12	15:54:53	1	1	1	experiment	1	1	3	ITI	220	45	15	6	2	2	attention	2	60			335		28					149	0	2	1	0	0	0	4	6	5	1	0	0	3	59	
6.6.1	mac	0	2023-10-12	15:54:53	1	1	1	experiment	1	1	3	preFreeze	500	45	15	6	2	2	attention	2	60			335		28					149	0	2	1	0	0	0	4	6	5	1	0	0	3	59	
6.6.1	mac	0	2023-10-12	15:54:53	1	1	1	experiment	1	1	3	clock	314	45	15	6	2	2	attention	2	90			335		28					149	0	2	1	0	0	0	4	6	5	1	0	0	3	59	
6.6.1	mac	0	2023-10-12	15:54:53	1	1	1	experiment	1	1	3	ISI	540	45	15	6	2	2	attention	2	90			335		28					149	0	2	1	0	0	0	4	6	5	1	0	0	3	59	
6.6.1	mac	0	2023-10-12	15:54:53	1	1	1	experiment	1	1	3	feedback	1000	45	15	6	2	2	attention	2	90	76.6080000000000040927	1064	77		5	3.5	0.4283571449174445878	5	10	149	0	3	2	0	0	0	4	6	5	1	0	0	2	59	
6.6.1	mac	0	2023-10-12	15:54:53	1	1	1	experiment	1	1	3	ITI	500	45	15	6	3	3	attention	3	90			77		5					149	0	3	2	0	0	0	4	6	5	1	0	0	2	59	
6.6.1	mac	0	2023-10-12	15:54:53	1	1	1	experiment	1	1	3	preFreeze	680	45	15	6	3	3	attention	3	90			77		5					149	0	3	2	0	0	0	4	6	5	1	0	0	2	59	
6.6.1	mac	0	2023-10-12	15:54:53	1	1	1	experiment	1	1	3	clock	382	45	15	6	3	3	attention	3	66			77		5					149	0	3	2	0	0	0	4	6	5	1	0	0	2	59	
6.6.1	mac	0	2023-10-12	15:54:53	1	1	1	experiment	1	1	3	ISI	590	45	15	6	3	3	attention	3	66			77		5					149	0	3	2	0	0	0	4	6	5	1	0	0	2	59	
6.6.1	mac	0	2023-10-12	15:54:53	1	1	1	experiment	1	1	3	feedback	1000	45	15	6	3	3	attention	3	66	355.1039999999999849933	4932	355		40	28	0.1757811319957909013	40	40	149	0	4	3	0	0	0	4	6	5	1	0	0	1	59	
6.6.1	mac	0	2023-10-12	15:54:53	1	1	1	experiment	1	1	3	ITI	160	45	15	6	4	4	attention	4	66			355		40					149	0	4	3	0	0	0	4	6	5	1	0	0	1	59	
6.6.1	mac	0	2023-10-12	15:54:53	1	1	1	experiment	1	1	3	preFreeze	610	45	15	6	4	4	attention	4	66			355		40					149	0	4	3	0	0	0	4	6	5	1	0	0	1	59	
6.6.1	mac	0	2023-10-12	15:54:53	1	1	1	experiment	1	1	3	clock	357	45	15	6	4	4	attention	4	4			355		40					149	0	4	3	0	0	0	4	6	5	1	0	0	1	59	
6.6.1	mac	0	2023-10-12	15:54:53	1	1	1	experiment	1	1	3	ISI	450	45	15	6	4	4	attention	4	4			355		40					149	0	4	3	0	0	0	4	6	5	1	0	0	1	59	
6.6.1	mac	0	2023-10-12	15:54:53	1	1	1	experiment	1	1	3	feedback	1000	45	15	6	4	4	attention	4	4	130.104000000000013415	1807	130		67	46.8999999999999985789	0.1107520323970243442	67	67	149	0	5	4	0	0	0	4	6	5	1	0	0	0	59	
6.6.1	mac	0	2023-10-12	15:54:53	1	1	1	experiment	1	1	3	ITI	470	45	15	6	5	5	attention	5	4			130		67					149	0	5	4	0	0	0	4	6	5	1	0	0	0	59	
6.6.1	mac	0	2023-10-12	15:54:53	1	1	1	experiment	1	1	3	preFreeze	570	45	15	6	5	5	attention	5	4			130		67					149	0	5	4	0	0	0	4	6	5	1	0	0	0	59	
6.6.1	mac	0	2023-10-12	15:54:53	1	1	1	experiment	1	1	3	clock	129	45	15	6	5	5	attention	5	22			130		67					149	0	5	4	0	0	0	4	6	5	1	0	0	0	59	
6.6.1	mac	0	2023-10-12	15:54:53	1	1	1	experiment	1	1	3	ISI	480	45	15	6	5	5	attention	5	22			130		67					149	0	5	4	0	0	0	4	6	5	1	0	0	0	59	
6.6.1	mac	0	2023-10-12	15:54:53	1	1	1	experiment	1	1	3	feedback	1000	45	15	6	5	5	attention	5	22	178.4879999999999995453	2479	178		161	112.6999999999999886313	0.8170560160225853741	10	10	149	0	6	5	0	0	0	4	6	5	1	0	0	-1	59	
6.6.1	mac	0	2023-10-12	15:54:53	1	1	1	experiment	1	1	3	ITI	290	45	15	6	6	6	attention	6	22			178		161					149	0	6	5	0	0	0	4	6	5	1	0	0	-1	59	
6.6.1	mac	0	2023-10-12	15:54:53	1	1	1	experiment	1	1	3	preFreeze	540	45	15	6	6	6	attention	6	22			178		161					149	0	6	5	0	0	0	4	6	5	1	0	0	-1	59	
6.6.1	mac	0	2023-10-12	15:54:53	1	1	1	experiment	1	1	3	clock	141	45	15	6	6	6	attention	6	74			178		161					149	0	6	5	0	0	0	4	6	5	1	0	0	-1	59	
