build	computer.platform	computer.touch	date	time	subject	group	sessionid	blockcode	blocknum	block	n_blocks	trialcode	latency	n_trials	block_length	best	lower_quartile	upper_quartile	list.curr_values_temp.median	erasure_index	erasure_RT	erasure_value	erasure_degrees	trial	run_trial	block_type	list.triallist.currentindex	startPos	pos_shifted	rt_shifted	rt_index	list.curr_values.currentvalue	mag	ev	rng	inc	inc_rg	stim_center_deg	choose_stim	run_trial_dum	n_attention	n_erasure	n_no_erasure	n_clicks	require_attention	require_no_erasure	require_erasure	timeouts_remain	timeout_block	generate_new_erasure	n_curr_block	list.degrees_att.currentvalue	list.degrees_era.currentvalue
6.6.1	mac	0	2023-10-16	16:39:47	1	1	1	experiment	1	1	4	ITI	410	45	10	6	11	75.5	32	122	243	22		1	1	no_erasure	1	0					0							1	0	0	0		3	3	4	1	0	1	3	9	242
6.6.1	mac	0	2023-10-16	16:39:47	1	1	1	experiment	1	1	4	preFreeze	640	45	10	6	11	75.5	32	122	243	22		1	1	no_erasure	1	0					0							1	0	0	0		3	3	4	1	0	1	3	9	242
6.6.1	mac	0	2023-10-16	16:39:47	1	1	1	experiment	1	1	4	clock	419	45	10	6	11	75.5	32	122	243	22		1	1	no_erasure	1	77					0							1	0	0	0		3	3	4	1	0	1	3	9	242
6.6.1	mac	0	2023-10-16	16:39:47	1	1	1	experiment	1	1	4	ISI	310	45	10	6	11	75.5	32	122	243	22		1	1	no_erasure	1	77					0							1	0	0	0		3	3	4	1	0	1	3	9	242
6.6.1	mac	0	2023-10-16	16:39:47	1	1	1	experiment	1	1	4	feedback	1000	45	10	6	11	75.5	32	122	243	22		1	1	no_erasure	1	77	37.3680000000000021032	519	37		27	18.8999999999999985789	0.1192181881329087006	27	27			2	0	0	1		3	3	4	1	0	0	2	9	242
6.6.1	mac	0	2023-10-16	16:39:47	1	1	1	experiment	1	1	4	ITI	230	45	10	6	11	75.5	32	122	243	22		2	2	no_erasure	2	77			37		27							2	0	0	1		3	3	4	1	0	0	2	9	242
6.6.1	mac	0	2023-10-16	16:39:47	1	1	1	experiment	1	1	4	preFreeze	610	45	10	6	11	75.5	32	122	243	22		2	2	no_erasure	2	77			37		27							2	0	0	1		3	3	4	1	0	0	2	9	242
6.6.1	mac	0	2023-10-16	16:39:47	1	1	1	experiment	1	1	4	clock	368	45	10	6	11	75.5	32	122	243	22		2	2	no_erasure	2	28			37		27							2	0	0	1		3	3	4	1	0	0	2	9	242
6.6.1	mac	0	2023-10-16	16:39:47	1	1	1	experiment	1	1	4	ISI	430	45	10	6	11	75.5	32	122	243	22		2	2	no_erasure	2	28			37		27							2	0	0	1		3	3	4	1	0	0	2	9	242
6.6.1	mac	0	2023-10-16	16:39:47	1	1	1	experiment	1	1	4	feedback	1000	45	10	6	11	75.5	32	122	243	22		2	2	no_erasure	2	28	217.2959999999999922693	3018	217		70	49	0.633207296867204672	70	70			3	0	0	2		3	3	4	1	0	0	1	9	242
6.6.1	mac	0	2023-10-16	16:39:47	1	1	1	experiment	1	1	4	ITI	160	45	10	6	11	75.5	32	122	243	22		3	3	no_erasure	3	28			217		70							3	0	0	2		3	3	4	1	0	0	1	9	242
6.6.1	mac	0	2023-10-16	16:39:47	1	1	1	experiment	1	1	4	preFreeze	500	45	10	6	11	75.5	32	122	243	22		3	3	no_erasure	3	28			217		70							3	0	0	2		3	3	4	1	0	0	1	9	242
6.6.1	mac	0	2023-10-16	16:39:47	1	1	1	experiment	1	1	4	clock	376	45	10	6	11	75.5	32	122	243	22		3	3	no_erasure	3	92			217		70							3	0	0	2		3	3	4	1	0	0	1	9	242
6.6.1	mac	0	2023-10-16	16:39:47	1	1	1	experiment	1	1	4	ISI	510	45	10	6	11	75.5	32	122	243	22		3	3	no_erasure	3	92			217		70							3	0	0	2		3	3	4	1	0	0	1	9	242
6.6.1	mac	0	2023-10-16	16:39:47	1	1	1	experiment	1	1	4	feedback	1000	45	10	6	11	75.5	32	122	243	22		3	3	no_erasure	3	92	88.2720000000000055707	1226	88		6	4.1999999999999992895	0.246299089921242359	6	10			4	0	0	3		3	3	4	1	0	0	0	9	242
6.6.1	mac	0	2023-10-16	16:39:47	1	1	1	experiment	1	1	4	ITI	100	45	10	6	11	75.5	32	122	243	22		4	4	erasure	4	92			88		6					332	0	4	0	0	3	0	3	3	4	1	0	1	4	9	242
6.6.1	mac	0	2023-10-16	16:39:47	1	1	1	experiment	1	1	4	preFreeze	620	45	10	6	11	75.5	32	122	243	22		4	4	erasure	4	92			88		6					332	0	4	0	0	3	0	3	3	4	1	0	1	4	9	242
6.6.1	mac	0	2023-10-16	16:39:47	1	1	1	experiment	1	1	4	clock	320	45	10	6	11	75.5	32	122	243	22		4	4	erasure	4	74			88		6					332	0	4	0	0	3	0	3	3	4	1	0	1	4	9	242
6.6.1	mac	0	2023-10-16	16:39:47	1	1	1	experiment	1	1	4	ISI	320	45	10	6	11	75.5	32	122	243	22		4	4	erasure	4	74			88		6					332	0	4	0	0	3	0	3	3	4	1	0	1	4	9	242
6.6.1	mac	0	2023-10-16	16:39:47	1	1	1	experiment	1	1	4	feedback	1000	45	10	6	11	75.5	32	122	243	22		4	4	erasure	4	74	19.440000000000001279	270	19		42	29.3999999999999985789	0.8752027868468320593	10	10	332	0	5	0	1	3	0	3	3	4	1	0	0	3	9	242
6.6.1	mac	0	2023-10-16	16:39:47	1	1	1	experiment	1	1	4	ITI	140	45	10	6	11	75.5	32	122	243	22		5	5	erasure	5	74			19		42					332	0	5	0	1	3	0	3	3	4	1	0	0	3	9	242
6.6.1	mac	0	2023-10-16	16:39:47	1	1	1	experiment	1	1	4	preFreeze	670	45	10	6	11	75.5	32	122	243	22		5	5	erasure	5	74			19		42					332	0	5	0	1	3	0	3	3	4	1	0	0	3	9	242
6.6.1	mac	0	2023-10-16	16:39:47	1	1	1	experiment	1	1	4	clock	363	45	10	6	11	75.5	32	122	243	22		5	5	erasure	5	8			19		42					332	0	5	0	1	3	0	3	3	4	1	0	0	3	9	242
6.6.1	mac	0	2023-10-16	16:39:47	1	1	1	experiment	1	1	4	ISI	550	45	10	6	11	75.5	32	122	243	22		5	5	erasure	5	8			19		42					332	0	5	0	1	3	0	3	3	4	1	0	0	3	9	242
6.6.1	mac	0	2023-10-16	16:39:47	1	1	1	experiment	1	1	4	feedback	1000	45	10	6	11	75.5	32	122	243	22		5	5	erasure	5	8	144.9360000000000070486	2013	145		97	67.8999999999999914735	0.6112422530099848039	97	97	332	0	6	0	2	3	0	3	3	4	1	0	0	2	9	242
6.6.1	mac	0	2023-10-16	16:39:47	1	1	1	experiment	1	1	4	ITI	450	45	10	6	11	75.5	32	122	243	22		6	6	erasure	6	8			145		97					332	0	6	0	2	3	0	3	3	4	1	0	0	2	9	242
6.6.1	mac	0	2023-10-16	16:39:47	1	1	1	experiment	1	1	4	preFreeze	530	45	10	6	11	75.5	32	122	243	22		6	6	erasure	6	8			145		97					332	0	6	0	2	3	0	3	3	4	1	0	0	2	9	242
6.6.1	mac	0	2023-10-16	16:39:47	1	1	1	experiment	1	1	4	clock	389	45	10	6	11	75.5	32	122	243	22		6	6	erasure	6	26			145		97					332	0	6	0	2	3	0	3	3	4	1	0	0	2	9	242
6.6.1	mac	0	2023-10-16	16:39:47	1	1	1	experiment	1	1	4	ISI	350	45	10	6	11	75.5	32	122	243	22		6	6	erasure	6	26			145		97					332	0	6	0	2	3	0	3	3	4	1	0	0	2	9	242
6.6.1	mac	0	2023-10-16	16:39:47	1	1	1	experiment	1	1	4	feedback	1000	45	10	6	11	75.5	32	122	243	22		6	6	erasure	6	26	211.6080000000000040927	2939	212		139	97.2999999999999971578	0.2723459113092036032	139	139	332	0	7	0	3	3	0	3	3	4	1	0	0	1	9	242
6.6.1	mac	0	2023-10-16	16:39:47	1	1	1	experiment	1	1	4	ITI	400	45	10	6	11	75.5	32	122	243	22		7	7	erasure	7	26			212		139					332	0	7	0	3	3	0	3	3	4	1	0	0	1	9	242
6.6.1	mac	0	2023-10-16	16:39:47	1	1	1	experiment	1	1	4	preFreeze	560	45	10	6	11	75.5	32	122	243	22		7	7	erasure	7	26			212		139					332	0	7	0	3	3	0	3	3	4	1	0	0	1	9	242
6.6.1	mac	0	2023-10-16	16:39:47	1	1	1	experiment	1	1	4	clock	434	45	10	6	11	75.5	32	122	243	22		7	7	erasure	7	1			212		139					332	0	7	0	3	3	0	3	3	4	1	0	0	1	9	242
6.6.1	mac	0	2023-10-16	16:39:47	1	1	1	experiment	1	1	4	ISI	270	45	10	6	11	75.5	32	122	243	22		7	7	erasure	7	1			212		139					332	0	7	0	3	3	0	3	3	4	1	0	0	1	9	242
6.6.1	mac	0	2023-10-16	16:39:47	1	1	1	experiment	1	1	4	feedback	1000	45	10	6	11	75.5	32	122	243	22		7	7	erasure	7	1	124.8479999999999989768	1734	125		41	28.6999999999999992895	0.2474301099421992167	41	41	332	0	8	0	4	3	0	3	3	4	1	0	0	0	9	242
6.6.1	mac	0	2023-10-16	16:39:47	1	1	1	experiment	1	1	4	ITI	110	45	10	6	11	75.5	32	122	243	22		8	8	no_erasure	8	1			125		41					332		8	0	4	3	0	3	3	4	0	1	0	1	9	242
6.6.1	mac	0	2023-10-16	16:39:47	1	1	1	experiment	1	1	4	preFreeze	580	45	10	6	11	75.5	32	122	243	22		8	8	no_erasure	8	1			125		41					332		8	0	4	3	0	3	3	4	0	1	0	1	9	242
6.6.1	mac	0	2023-10-16	16:39:47	1	1	1	experiment	1	1	4	clock	408	45	10	6	11	75.5	32	122	243	22		8	8	no_erasure	8	74			125		41					332		8	0	4	3	0	3	3	4	0	1	0	1	9	242
6.6.1	mac	0	2023-10-16	16:39:47	1	1	1	experiment	1	1	4	ISI	500	45	10	6	11	75.5	32	122	243	22		8	8	no_erasure	8	74			125		41					332		8	0	4	3	0	3	3	4	0	1	0	1	9	242
6.6.1	mac	0	2023-10-16	16:39:47	1	1	1	experiment	1	1	4	feedback	1000	45	10	6	11	75.5	32	122	243	22		8	8	no_erasure	8	74	25.775999999999999801	358	26		42	29.3999999999999985789	0.2572937219537081432	42	42	332		9	0	4	4	0	3	3	4	0	1	0	0	9	242
6.6.1	mac	0	2023-10-16	16:39:47	1	1	1	experiment	1	1	4	ITI	420	45	10	6	11	75.5	32	122	243	22		9	9	attention	9	74			26		42					99	0	9	0	4	4	0	3	3	4	1	0	1	3	9	242
6.6.1	mac	0	2023-10-16	16:39:47	1	1	1	experiment	1	1	4	preFreeze	690	45	10	6	11	75.5	32	122	243	22		9	9	attention	9	74			26		42					99	0	9	0	4	4	0	3	3	4	1	0	1	3	9	242
6.6.1	mac	0	2023-10-16	16:39:47	1	1	1	experiment	1	1	4	clock	1102	45	10	6	11	75.5	32	122	243	22		9	9	attention	9	93			26		42					99	0	9	0	4	4	0	3	3	4	1	0	1	3	9	242
6.6.1	mac	0	2023-10-16	16:39:47	1	1	1	experiment	1	1	4	ISI	580	45	10	6	11	75.5	32	122	243	22		9	9	attention	9	93			26		42					99	0	9	0	4	4	0	3	3	4	1	0	1	3	9	242
6.6.1	mac	0	2023-10-16	16:39:47	1	1	1	experiment	1	1	4	feedback	1000	45	10	6	11	75.5	32	122	243	22		9	9	attention	9	93	144.144000000000005457	2002	144		51	35.6999999999999957367	0.7796132533763565631	10	10	99	0	10	1	4	4	0	3	3	4	1	0	0	2	9	242
6.6.1	mac	0	2023-10-16	16:39:47	1	1	1	experiment	1	1	4	ITI	280	45	10	6	11	75.5	32	122	243	22		10	10	attention	10	93			144		51					99	0	10	1	4	4	0	3	3	4	1	0	0	2	9	242
6.6.1	mac	0	2023-10-16	16:39:47	1	1	1	experiment	1	1	4	preFreeze	570	45	10	6	11	75.5	32	122	243	22		10	10	attention	10	93			144		51					99	0	10	1	4	4	0	3	3	4	1	0	0	2	9	242
6.6.1	mac	0	2023-10-16	16:39:47	1	1	1	experiment	1	1	4	clock	644	45	10	6	11	75.5	32	122	243	22		10	10	attention	10	77			144		51					99	0	10	1	4	4	0	3	3	4	1	0	0	2	9	242
6.6.1	mac	0	2023-10-16	16:39:47	1	1	1	experiment	1	1	4	ISI	450	45	10	6	11	75.5	32	122	243	22		10	10	attention	10	77			144		51					99	0	10	1	4	4	0	3	3	4	1	0	0	2	9	242
6.6.1	mac	0	2023-10-16	16:39:47	1	1	1	experiment	1	1	4	feedback	1000	45	10	6	11	75.5	32	122	243	22		10	10	attention	10	77	53.56799999999999784	744	54		40	28	0.6959651367962279567	40	40	99	0	11	2	4	4	0	3	3	4	1	0	0	1	9	242
6.6.1	mac	0	2023-10-16	16:39:47	1	1	1	experiment	2	2	4	ITI	390	45	10	6	11	75.5	32	303	243	22		11	1	no_erasure	1	77			54		40					99		1	0	0	0		3	3	4	0	1	0	1	9	242
6.6.1	mac	0	2023-10-16	16:39:47	1	1	1	experiment	2	2	4	preFreeze	600	45	10	6	11	75.5	32	303	243	22		11	1	no_erasure	1	77			54		40					99		1	0	0	0		3	3	4	0	1	0	1	9	242
6.6.1	mac	0	2023-10-16	16:39:47	1	1	1	experiment	2	2	4	clock	413	45	10	6	11	75.5	32	303	243	22		11	1	no_erasure	1	34			54		40					99		1	0	0	0		3	3	4	0	1	0	1	9	242
6.6.1	mac	0	2023-10-16	16:39:47	1	1	1	experiment	2	2	4	ISI	440	45	10	6	11	75.5	32	303	243	22		11	1	no_erasure	1	34			54		40					99		1	0	0	0		3	3	4	0	1	0	1	9	242
6.6.1	mac	0	2023-10-16	16:39:47	1	1	1	experiment	2	2	4	feedback	1000	45	10	6	11	75.5	32	303	243	22		11	1	no_erasure	1	34	242.1359999999999956799	3363	242		100	70	0.2632337923308913363	100	100	99		2	0	0	1		3	3	4	0	1	0	0	9	242
6.6.1	mac	0	2023-10-16	16:39:47	1	1	1	experiment	2	2	4	ITI	250	45	10	6	11	75.5	32	303	243	22		12	2	no_erasure	2	34			242		100					99		2	0	0	1		3	3	4	1	0	1	0	9	242
6.6.1	mac	0	2023-10-16	16:39:47	1	1	1	experiment	2	2	4	preFreeze	520	45	10	6	11	75.5	32	303	243	22		12	2	no_erasure	2	34			242		100					99		2	0	0	1		3	3	4	1	0	1	0	9	242
6.6.1	mac	0	2023-10-16	16:39:47	1	1	1	experiment	2	2	4	clock	362	45	10	6	11	75.5	32	303	243	22		12	2	no_erasure	2	68			242		100					99		2	0	0	1		3	3	4	1	0	1	0	9	242
6.6.1	mac	0	2023-10-16	16:39:47	1	1	1	experiment	2	2	4	ISI	240	45	10	6	11	75.5	32	303	243	22		12	2	no_erasure	2	68			242		100					99		2	0	0	1		3	3	4	1	0	1	0	9	242
6.6.1	mac	0	2023-10-16	16:39:47	1	1	1	experiment	2	2	4	feedback	1000	45	10	6	11	75.5	32	303	243	22		12	2	no_erasure	2	68	0.8639999999999999902	12	1		30	21	0.2156674836798728179	30	30	99		3	0	0	2		3	3	4	1	0	0	-1	9	242
6.6.1	mac	0	2023-10-16	16:39:47	1	1	1	experiment	2	2	4	ITI	210	45	10	6	11	75.5	32	303	243	22		13	3	no_erasure	3	68			1		30					99		3	0	0	2		3	3	4	1	0	1	-1	9	242
6.6.1	mac	0	2023-10-16	16:39:47	1	1	1	experiment	2	2	4	preFreeze	590	45	10	6	11	75.5	32	303	243	22		13	3	no_erasure	3	68			1		30					99		3	0	0	2		3	3	4	1	0	1	-1	9	242
6.6.1	mac	0	2023-10-16	16:39:47	1	1	1	experiment	2	2	4	clock	362	45	10	6	11	75.5	32	303	243	22		13	3	no_erasure	3	98			1		30					99		3	0	0	2		3	3	4	1	0	1	-1	9	242
6.6.1	mac	0	2023-10-16	16:39:47	1	1	1	experiment	2	2	4	ISI	380	45	10	6	11	75.5	32	303	243	22		13	3	no_erasure	3	98			1		30					99		3	0	0	2		3	3	4	1	0	1	-1	9	242
6.6.1	mac	0	2023-10-16	16:39:47	1	1	1	experiment	2	2	4	feedback	1000	45	10	6	11	75.5	32	303	243	22		13	3	no_erasure	3	98	108.8640000000000043201	1512	109		6	4.1999999999999992895	0.1131673048048204011	6	10	99		4	0	0	3		3	3	4	1	0	0	-2	9	242
6.6.1	mac	0	2023-10-16	16:39:47	1	1	1	experiment	2	2	4	ITI	350	45	10	6	11	75.5	32	303	243	22		14	4	attention	4	98			109		6					99	0	4	0	0	3	0	3	3	4	1	0	1	3	9	242
6.6.1	mac	0	2023-10-16	16:39:47	1	1	1	experiment	2	2	4	preFreeze	540	45	10	6	11	75.5	32	303	243	22		14	4	attention	4	98			109		6					99	0	4	0	0	3	0	3	3	4	1	0	1	3	9	242
6.6.1	mac	0	2023-10-16	16:39:47	1	1	1	experiment	2	2	4	clock	409	45	10	6	11	75.5	32	303	243	22		14	4	attention	4	9			109		6					99	0	4	0	0	3	0	3	3	4	1	0	1	3	9	242
6.6.1	mac	0	2023-10-16	16:39:47	1	1	1	experiment	2	2	4	ISI	390	45	10	6	11	75.5	32	303	243	22		14	4	attention	4	9			109		6					99	0	4	0	0	3	0	3	3	4	1	0	1	3	9	242
6.6.1	mac	0	2023-10-16	16:39:47	1	1	1	experiment	2	2	4	feedback	1000	45	10	6	11	75.5	32	303	243	22		14	4	attention	4	9	151.8480000000000131877	2109	152		76	53.1999999999999957367	0.3025868871022450723	76	76	99	0	5	1	0	3	0	3	3	4	1	0	0	2	9	242
6.6.1	mac	0	2023-10-16	16:39:47	1	1	1	experiment	2	2	4	ITI	480	45	10	6	11	75.5	32	303	243	22		15	5	attention	5	9			152		76					99	0	5	1	0	3	0	3	3	4	1	0	0	2	9	242
6.6.1	mac	0	2023-10-16	16:39:47	1	1	1	experiment	2	2	4	preFreeze	680	45	10	6	11	75.5	32	303	243	22		15	5	attention	5	9			152		76					99	0	5	1	0	3	0	3	3	4	1	0	0	2	9	242
6.6.1	mac	0	2023-10-16	16:39:47	1	1	1	experiment	2	2	4	clock	363	45	10	6	11	75.5	32	303	243	22		15	5	attention	5	32			152		76					99	0	5	1	0	3	0	3	3	4	1	0	0	2	9	242
6.6.1	mac	0	2023-10-16	16:39:47	1	1	1	experiment	2	2	4	ISI	420	45	10	6	11	75.5	32	303	243	22		15	5	attention	5	32			152		76					99	0	5	1	0	3	0	3	3	4	1	0	0	2	9	242
6.6.1	mac	0	2023-10-16	16:39:47	1	1	1	experiment	2	2	4	feedback	1000	45	10	6	11	75.5	32	303	243	22		15	5	attention	5	32	231.3360000000000127329	3213	231		68	47.5999999999999943157	0.9850389277527664689	10	10	99	0	6	2	0	3	0	3	3	4	1	0	0	1	9	242
6.6.1	mac	0	2023-10-16	16:39:47	1	1	1	experiment	2	2	4	ITI	150	45	10	6	11	75.5	32	303	243	22		16	6	attention	6	32			231		68					99	0	6	2	0	3	0	3	3	4	1	0	0	1	9	242
6.6.1	mac	0	2023-10-16	16:39:47	1	1	1	experiment	2	2	4	preFreeze	510	45	10	6	11	75.5	32	303	243	22		16	6	attention	6	32			231		68					99	0	6	2	0	3	0	3	3	4	1	0	0	1	9	242
6.6.1	mac	0	2023-10-16	16:39:47	1	1	1	experiment	2	2	4	clock	363	45	10	6	11	75.5	32	303	243	22		16	6	attention	6	16			231		68					99	0	6	2	0	3	0	3	3	4	1	0	0	1	9	242
6.6.1	mac	0	2023-10-16	16:39:47	1	1	1	experiment	2	2	4	ISI	200	45	10	6	11	75.5	32	303	243	22		16	6	attention	6	16			231		68					99	0	6	2	0	3	0	3	3	4	1	0	0	1	9	242
6.6.1	mac	0	2023-10-16	16:39:47	1	1	1	experiment	2	2	4	feedback	1000	45	10	6	11	75.5	32	303	243	22		16	6	attention	6	16	173.7359999999999899956	2413	174		161	112.6999999999999886313	0.7025243778951755225	10	10	99	0	7	3	0	3	0	3	3	4	1	0	0	0	9	242
6.6.1	mac	0	2023-10-16	16:39:47	1	1	1	experiment	2	2	4	ITI	370	45	10	6	11	75.5	32	303	243	22		17	7	no_erasure	7	16			174		161					99		7	3	0	3	0	3	3	4	0	1	0	1	9	242
6.6.1	mac	0	2023-10-16	16:39:47	1	1	1	experiment	2	2	4	preFreeze	700	45	10	6	11	75.5	32	303	243	22		17	7	no_erasure	7	16			174		161					99		7	3	0	3	0	3	3	4	0	1	0	1	9	242
6.6.1	mac	0	2023-10-16	16:39:47	1	1	1	experiment	2	2	4	clock	397	45	10	6	11	75.5	32	303	243	22		17	7	no_erasure	7	59			174		161					99		7	3	0	3	0	3	3	4	0	1	0	1	9	242
6.6.1	mac	0	2023-10-16	16:39:47	1	1	1	experiment	2	2	4	ISI	280	45	10	6	11	75.5	32	303	243	22		17	7	no_erasure	7	59			174		161					99		7	3	0	3	0	3	3	4	0	1	0	1	9	242
6.6.1	mac	0	2023-10-16	16:39:47	1	1	1	experiment	2	2	4	feedback	1000	45	10	6	11	75.5	32	303	243	22		17	7	no_erasure	7	59	330.9839999999999804459	4597	331		16	11.1999999999999992895	0.9879641220876863583	10	10	99		8	3	0	4	0	3	3	4	0	1	0	0	9	242
6.6.1	mac	0	2023-10-16	16:39:47	1	1	1	experiment	2	2	4	ITI	290	45	10	6	11	75.5	32	303	243	22		18	8	erasure	8	59			331		16					332	0	8	3	0	4	0	3	3	4	1	0	1	4	9	242
6.6.1	mac	0	2023-10-16	16:39:47	1	1	1	experiment	2	2	4	preFreeze	630	45	10	6	11	75.5	32	303	243	22		18	8	erasure	8	59			331		16					332	0	8	3	0	4	0	3	3	4	1	0	1	4	9	242
6.6.1	mac	0	2023-10-16	16:39:47	1	1	1	experiment	2	2	4	clock	644	45	10	6	11	75.5	32	303	243	22		18	8	erasure	8	69			331		16					332	0	8	3	0	4	0	3	3	4	1	0	1	4	9	242
6.6.1	mac	0	2023-10-16	16:39:47	1	1	1	experiment	2	2	4	ISI	360	45	10	6	11	75.5	32	303	243	22		18	8	erasure	8	69			331		16					332	0	8	3	0	4	0	3	3	4	1	0	1	4	9	242
6.6.1	mac	0	2023-10-16	16:39:47	1	1	1	experiment	2	2	4	feedback	1000	45	10	6	11	75.5	32	303	243	22		18	8	erasure	8	69	24.7680000000000006821	344	25		41	28.6999999999999992895	0.0926917263056830781	41	41	332	0	9	3	1	4	0	3	3	4	1	0	0	3	9	242
6.6.1	mac	0	2023-10-16	16:39:47	1	1	1	experiment	2	2	4	ITI	470	45	10	6	11	75.5	32	303	243	22		19	9	erasure	9	69			25		41					332	0	9	3	1	4	0	3	3	4	1	0	0	3	9	242
6.6.1	mac	0	2023-10-16	16:39:47	1	1	1	experiment	2	2	4	preFreeze	650	45	10	6	11	75.5	32	303	243	22		19	9	erasure	9	69			25		41					332	0	9	3	1	4	0	3	3	4	1	0	0	3	9	242
6.6.1	mac	0	2023-10-16	16:39:47	1	1	1	experiment	2	2	4	clock	427	45	10	6	11	75.5	32	303	243	22		19	9	erasure	9	89			25		41					332	0	9	3	1	4	0	3	3	4	1	0	0	3	9	242
6.6.1	mac	0	2023-10-16	16:39:47	1	1	1	experiment	2	2	4	ISI	340	45	10	6	11	75.5	32	303	243	22		19	9	erasure	9	89			25		41					332	0	9	3	1	4	0	3	3	4	1	0	0	3	9	242
6.6.1	mac	0	2023-10-16	16:39:47	1	1	1	experiment	2	2	4	feedback	1000	45	10	6	11	75.5	32	303	243	22		19	9	erasure	9	89	81.144000000000005457	1127	81		4	2.7999999999999998224	0.3094864909792054419	4	10	332	0	10	3	2	4	0	3	3	4	1	0	0	2	9	242
6.6.1	mac	0	2023-10-16	16:39:47	1	1	1	experiment	2	2	4	ITI	440	45	10	6	11	75.5	32	303	243	22		20	10	erasure	10	89			81		4					332	0	10	3	2	4	0	3	3	4	1	0	0	2	9	242
6.6.1	mac	0	2023-10-16	16:39:47	1	1	1	experiment	2	2	4	preFreeze	550	45	10	6	11	75.5	32	303	243	22		20	10	erasure	10	89			81		4					332	0	10	3	2	4	0	3	3	4	1	0	0	2	9	242
6.6.1	mac	0	2023-10-16	16:39:47	1	1	1	experiment	2	2	4	clock	324	45	10	6	11	75.5	32	303	243	22		20	10	erasure	10	99			81		4					332	0	10	3	2	4	0	3	3	4	1	0	0	2	9	242
6.6.1	mac	0	2023-10-16	16:39:47	1	1	1	experiment	2	2	4	ISI	520	45	10	6	11	75.5	32	303	243	22		20	10	erasure	10	99			81		4					332	0	10	3	2	4	0	3	3	4	1	0	0	2	9	242
6.6.1	mac	0	2023-10-16	16:39:47	1	1	1	experiment	2	2	4	feedback	1000	45	10	6	11	75.5	32	303	243	22		20	10	erasure	10	99	109.7279999999999944293	1524	110		25	17.5	0.8837990767517590607	10	10	332	0	11	3	3	4	0	3	3	4	1	0	0	1	9	242
6.6.1	mac	0	2023-10-16	16:39:47	1	1	1	experiment	3	3	4	ITI	190	45	10	6	11	75.5	32	293	243	22		21	1	no_erasure	1	99			110		25					332		1	0	0	0		3	3	4	0	1	0	1	9	242
6.6.1	mac	0	2023-10-16	16:39:47	1	1	1	experiment	3	3	4	preFreeze	660	45	10	6	11	75.5	32	293	243	22		21	1	no_erasure	1	99			110		25					332		1	0	0	0		3	3	4	0	1	0	1	9	242
6.6.1	mac	0	2023-10-16	16:39:47	1	1	1	experiment	3	3	4	clock	447	45	10	6	11	75.5	32	293	243	22		21	1	no_erasure	1	55			110		25					332		1	0	0	0		3	3	4	0	1	0	1	9	242
6.6.1	mac	0	2023-10-16	16:39:47	1	1	1	experiment	3	3	4	ISI	300	45	10	6	11	75.5	32	293	243	22		21	1	no_erasure	1	55			110		25					332		1	0	0	0		3	3	4	0	1	0	1	9	242
6.6.1	mac	0	2023-10-16	16:39:47	1	1	1	experiment	3	3	4	feedback	1000	45	10	6	11	75.5	32	293	243	22		21	1	no_erasure	1	55	320.1840000000000259206	4447	320		10	7	0.0134366455053530273	10	10	332		2	0	0	1		3	3	4	0	1	0	0	9	242
6.6.1	mac	0	2023-10-16	16:39:47	1	1	1	experiment	3	3	4	ITI	430	45	10	6	11	75.5	32	293	243	22		22	2	no_erasure	2	55			320		10					332		2	0	0	1		3	3	4	1	0	1	-2	9	242
6.6.1	mac	0	2023-10-16	16:39:47	1	1	1	experiment	3	3	4	preFreeze	600	45	10	6	11	75.5	32	293	243	22		22	2	no_erasure	2	55			320		10					332		2	0	0	1		3	3	4	1	0	1	-2	9	242
6.6.1	mac	0	2023-10-16	16:39:47	1	1	1	experiment	3	3	4	clock	416	45	10	6	11	75.5	32	293	243	22		22	2	no_erasure	2	34			320		10					332		2	0	0	1		3	3	4	1	0	1	-2	9	242
6.6.1	mac	0	2023-10-16	16:39:47	1	1	1	experiment	3	3	4	ISI	410	45	10	6	11	75.5	32	293	243	22		22	2	no_erasure	2	34			320		10					332		2	0	0	1		3	3	4	1	0	1	-2	9	242
6.6.1	mac	0	2023-10-16	16:39:47	1	1	1	experiment	3	3	4	feedback	1000	45	10	6	11	75.5	32	293	243	22		22	2	no_erasure	2	34	242.3520000000000038654	3366	242		49	34.2999999999999971578	0.5024662200600062967	49	49	332		3	0	0	2		3	3	4	1	0	0	-3	9	242
6.6.1	mac	0	2023-10-16	16:39:47	1	1	1	experiment	3	3	4	ITI	260	45	10	6	11	75.5	32	293	243	22		23	3	no_erasure	3	34			242		49					332		3	0	0	2		3	3	4	1	0	1	-3	9	242
6.6.1	mac	0	2023-10-16	16:39:47	1	1	1	experiment	3	3	4	preFreeze	500	45	10	6	11	75.5	32	293	243	22		23	3	no_erasure	3	34			242		49					332		3	0	0	2		3	3	4	1	0	1	-3	9	242
6.6.1	mac	0	2023-10-16	16:39:47	1	1	1	experiment	3	3	4	clock	1133	45	10	6	11	75.5	32	293	243	22		23	3	no_erasure	3	6			242		49					332		3	0	0	2		3	3	4	1	0	1	-3	9	242
6.6.1	mac	0	2023-10-16	16:39:47	1	1	1	experiment	3	3	4	ISI	370	45	10	6	11	75.5	32	293	243	22		23	3	no_erasure	3	6			242		49					332		3	0	0	2		3	3	4	1	0	1	-3	9	242
6.6.1	mac	0	2023-10-16	16:39:47	1	1	1	experiment	3	3	4	feedback	1000	45	10	6	11	75.5	32	293	243	22		23	3	no_erasure	3	6	193.1759999999999877218	2683	193		150	105	0.369258489080066421	150	150	332		4	0	0	3		3	3	4	1	0	0	-4	9	242
6.6.1	mac	0	2023-10-16	16:39:47	1	1	1	experiment	3	3	4	ITI	310	45	10	6	11	75.5	32	293	243	22		24	4	attention	4	6			193		150					99	0	4	0	0	3	0	3	3	4	1	0	1	3	9	242
6.6.1	mac	0	2023-10-16	16:39:47	1	1	1	experiment	3	3	4	preFreeze	580	45	10	6	11	75.5	32	293	243	22		24	4	attention	4	6			193		150					99	0	4	0	0	3	0	3	3	4	1	0	1	3	9	242
6.6.1	mac	0	2023-10-16	16:39:47	1	1	1	experiment	3	3	4	clock	405	45	10	6	11	75.5	32	293	243	22		24	4	attention	4	22			193		150					99	0	4	0	0	3	0	3	3	4	1	0	1	3	9	242
6.6.1	mac	0	2023-10-16	16:39:47	1	1	1	experiment	3	3	4	ISI	230	45	10	6	11	75.5	32	293	243	22		24	4	attention	4	22			193		150					99	0	4	0	0	3	0	3	3	4	1	0	1	3	9	242
6.6.1	mac	0	2023-10-16	16:39:47	1	1	1	experiment	3	3	4	feedback	1000	45	10	6	11	75.5	32	293	243	22		24	4	attention	4	22	198.3600000000000136424	2755	198		148	103.5999999999999943157	0.0262423770097648668	148	148	99	0	5	1	0	3	0	3	3	4	1	0	0	2	9	242
6.6.1	mac	0	2023-10-16	16:39:47	1	1	1	experiment	3	3	4	ITI	130	45	10	6	11	75.5	32	293	243	22		25	5	attention	5	22			198		148					99	0	5	1	0	3	0	3	3	4	1	0	0	2	9	242
6.6.1	mac	0	2023-10-16	16:39:47	1	1	1	experiment	3	3	4	preFreeze	560	45	10	6	11	75.5	32	293	243	22		25	5	attention	5	22			198		148					99	0	5	1	0	3	0	3	3	4	1	0	0	2	9	242
6.6.1	mac	0	2023-10-16	16:39:47	1	1	1	experiment	3	3	4	clock	464	45	10	6	11	75.5	32	293	243	22		25	5	attention	5	68			198		148					99	0	5	1	0	3	0	3	3	4	1	0	0	2	9	242
6.6.1	mac	0	2023-10-16	16:39:47	1	1	1	experiment	3	3	4	ISI	400	45	10	6	11	75.5	32	293	243	22		25	5	attention	5	68			198		148					99	0	5	1	0	3	0	3	3	4	1	0	0	2	9	242
6.6.1	mac	0	2023-10-16	16:39:47	1	1	1	experiment	3	3	4	feedback	1000	45	10	6	11	75.5	32	293	243	22		25	5	attention	5	68	8.2080000000000001847	114	8		28	19.5999999999999978684	0.1187790413663673827	28	28	99	0	6	2	0	3	0	3	3	4	1	0	0	1	9	242
6.6.1	mac	0	2023-10-16	16:39:47	1	1	1	experiment	3	3	4	ITI	300	45	10	6	11	75.5	32	293	243	22		26	6	attention	6	68			8		28					99	0	6	2	0	3	0	3	3	4	1	0	0	1	9	242
6.6.1	mac	0	2023-10-16	16:39:47	1	1	1	experiment	3	3	4	preFreeze	590	45	10	6	11	75.5	32	293	243	22		26	6	attention	6	68			8		28					99	0	6	2	0	3	0	3	3	4	1	0	0	1	9	242
6.6.1	mac	0	2023-10-16	16:39:47	1	1	1	experiment	3	3	4	clock	366	45	10	6	11	75.5	32	293	243	22		26	6	attention	6	34			8		28					99	0	6	2	0	3	0	3	3	4	1	0	0	1	9	242
6.6.1	mac	0	2023-10-16	16:39:47	1	1	1	experiment	3	3	4	ISI	530	45	10	6	11	75.5	32	293	243	22		26	6	attention	6	34			8		28					99	0	6	2	0	3	0	3	3	4	1	0	0	1	9	242
6.6.1	mac	0	2023-10-16	16:39:47	1	1	1	experiment	3	3	4	feedback	1000	45	10	6	11	75.5	32	293	243	22		26	6	attention	6	34	238.7520000000000095497	3316	239		96	67.1999999999999886313	0.3083505591629889242	96	96	99	0	7	3	0	3	0	3	3	4	1	0	0	0	9	242
6.6.1	mac	0	2023-10-16	16:39:47	1	1	1	experiment	3	3	4	ITI	360	45	10	6	11	75.5	32	293	243	22		27	7	no_erasure	7	34			239		96					99		7	3	0	3	0	3	3	4	0	1	0	1	9	242
6.6.1	mac	0	2023-10-16	16:39:47	1	1	1	experiment	3	3	4	preFreeze	700	45	10	6	11	75.5	32	293	243	22		27	7	no_erasure	7	34			239		96					99		7	3	0	3	0	3	3	4	0	1	0	1	9	242
6.6.1	mac	0	2023-10-16	16:39:47	1	1	1	experiment	3	3	4	clock	367	45	10	6	11	75.5	32	293	243	22		27	7	no_erasure	7	95			239		96					99		7	3	0	3	0	3	3	4	0	1	0	1	9	242
6.6.1	mac	0	2023-10-16	16:39:47	1	1	1	experiment	3	3	4	ISI	590	45	10	6	11	75.5	32	293	243	22		27	7	no_erasure	7	95			239		96					99		7	3	0	3	0	3	3	4	0	1	0	1	9	242
6.6.1	mac	0	2023-10-16	16:39:47	1	1	1	experiment	3	3	4	feedback	1000	45	10	6	11	75.5	32	293	243	22		27	7	no_erasure	7	95	98.4240000000000065938	1367	98		23	16.0999999999999978684	0.0969607790692152416	23	23	99		8	3	0	4	0	3	3	4	0	1	0	0	9	242
6.6.1	mac	0	2023-10-16	16:39:47	1	1	1	experiment	3	3	4	ITI	240	45	10	6	11	75.5	32	293	243	22		28	8	erasure	8	95			98		23					332	0	8	3	0	4	0	3	3	4	1	0	1	4	9	242
6.6.1	mac	0	2023-10-16	16:39:47	1	1	1	experiment	3	3	4	preFreeze	540	45	10	6	11	75.5	32	293	243	22		28	8	erasure	8	95			98		23					332	0	8	3	0	4	0	3	3	4	1	0	1	4	9	242
6.6.1	mac	0	2023-10-16	16:39:47	1	1	1	experiment	3	3	4	clock	479	45	10	6	11	75.5	32	293	243	22		28	8	erasure	8	32			98		23					332	0	8	3	0	4	0	3	3	4	1	0	1	4	9	242
6.6.1	mac	0	2023-10-16	16:39:47	1	1	1	experiment	3	3	4	ISI	330	45	10	6	11	75.5	32	293	243	22		28	8	erasure	8	32			98		23					332	0	8	3	0	4	0	3	3	4	1	0	1	4	9	242
6.6.1	mac	0	2023-10-16	16:39:47	1	1	1	experiment	3	3	4	feedback	393	45	10	6	11	75.5	32	293	243	22		28	8	erasure	8	32	239.6879999999999881766	3329	240		91	63.6999999999999957367	0.1250548658718017014	91	91	332	0	9	3	1	4	0	3	3	4	1	0	0	3	9	242
