build	computer.platform	computer.touch	date	time	subject	group	sessionid	blockcode	blocknum	block	n_blocks	trialcode	latency	n_trials	block_length	best	trial	run_trial	block_type	list.triallist.currentindex	startPos	pos_shifted	rt_shifted	stim_center_deg	choose_stim	run_trial_dum	n_attention	n_erasure	n_no_erasure	n_clicks	require_attention	require_no_erasure	require_erasure	timeouts_remain	timeout_block	generate_new_erasure	n_curr_block	list.degrees_att.currentvalue	list.degrees_era.currentvalue
6.6.1	mac	0	2023-10-12	13:30:47	1	1	1	experiment	1	1	3	ITI	460	45	15	6	1	1	no_erasure	1	0	0	0			1	0	0	0		4	6	5	1	0	1	6		
6.6.1	mac	0	2023-10-12	13:30:47	1	1	1	experiment	1	1	3	preFreeze	690	45	15	6	1	1	no_erasure	1	0	0	0			1	0	0	0		4	6	5	1	0	1	6		
6.6.1	mac	0	2023-10-12	13:30:47	1	1	1	experiment	1	1	3	clock	1039	45	15	6	1	1	no_erasure	1	73	0	0			1	0	0	0		4	6	5	1	0	1	6		
6.6.1	mac	0	2023-10-12	13:30:47	1	1	1	experiment	1	1	3	ISI	320	45	15	6	1	1	no_erasure	1	73	0	0			1	0	0	0		4	6	5	1	0	1	6		
6.6.1	mac	0	2023-10-12	13:30:47	1	1	1	experiment	1	1	3	feedback	1000	45	15	6	1	1	no_erasure	1	73	67.6080000000000040927	939			2	0	0	1		4	6	5	1	0	0	5		
6.6.1	mac	0	2023-10-12	13:30:47	1	1	1	experiment	1	1	3	ITI	300	45	15	6	2	2	no_erasure	2	73	67.6080000000000040927	939			2	0	0	1		4	6	5	1	0	0	5		
6.6.1	mac	0	2023-10-12	13:30:47	1	1	1	experiment	1	1	3	preFreeze	560	45	15	6	2	2	no_erasure	2	73	67.6080000000000040927	939			2	0	0	1		4	6	5	1	0	0	5		
6.6.1	mac	0	2023-10-12	13:30:47	1	1	1	experiment	1	1	3	clock	1157	45	15	6	2	2	no_erasure	2	90	67.6080000000000040927	939			2	0	0	1		4	6	5	1	0	0	5		
6.6.1	mac	0	2023-10-12	13:30:47	1	1	1	experiment	1	1	3	ISI	250	45	15	6	2	2	no_erasure	2	90	67.6080000000000040927	939			2	0	0	1		4	6	5	1	0	0	5		
6.6.1	mac	0	2023-10-12	13:30:47	1	1	1	experiment	1	1	3	feedback	1000	45	15	6	2	2	no_erasure	2	90	137.3040000000000020464	1907			3	0	0	2		4	6	5	1	0	0	4		
6.6.1	mac	0	2023-10-12	13:30:47	1	1	1	experiment	1	1	3	ITI	400	45	15	6	3	3	no_erasure	3	90	137.3040000000000020464	1907			3	0	0	2		4	6	5	1	0	0	4		
6.6.1	mac	0	2023-10-12	13:30:47	1	1	1	experiment	1	1	3	preFreeze	660	45	15	6	3	3	no_erasure	3	90	137.3040000000000020464	1907			3	0	0	2		4	6	5	1	0	0	4		
6.6.1	mac	0	2023-10-12	13:30:47	1	1	1	experiment	1	1	3	clock	1808	45	15	6	3	3	no_erasure	3	2	137.3040000000000020464	1907			3	0	0	2		4	6	5	1	0	0	4		
6.6.1	mac	0	2023-10-12	13:30:47	1	1	1	experiment	1	1	3	ISI	390	45	15	6	3	3	no_erasure	3	2	137.3040000000000020464	1907			3	0	0	2		4	6	5	1	0	0	4		
6.6.1	mac	0	2023-10-12	13:30:47	1	1	1	experiment	1	1	3	feedback	1000	45	15	6	3	3	no_erasure	3	2	227.3760000000000047748	3158			4	0	0	3		4	6	5	1	0	0	3		
6.6.1	mac	0	2023-10-12	13:30:47	1	1	1	experiment	1	1	3	ITI	410	45	15	6	4	4	no_erasure	4	2	227.3760000000000047748	3158			4	0	0	3		4	6	5	1	0	0	3		
6.6.1	mac	0	2023-10-12	13:30:47	1	1	1	experiment	1	1	3	preFreeze	550	45	15	6	4	4	no_erasure	4	2	227.3760000000000047748	3158			4	0	0	3		4	6	5	1	0	0	3		
6.6.1	mac	0	2023-10-12	13:30:47	1	1	1	experiment	1	1	3	clock	630	45	15	6	4	4	no_erasure	4	58	227.3760000000000047748	3158			4	0	0	3		4	6	5	1	0	0	3		
6.6.1	mac	0	2023-10-12	13:30:47	1	1	1	experiment	1	1	3	ISI	300	45	15	6	4	4	no_erasure	4	58	227.3760000000000047748	3158			4	0	0	3		4	6	5	1	0	0	3		
6.6.1	mac	0	2023-10-12	13:30:47	1	1	1	experiment	1	1	3	feedback	1000	45	15	6	4	4	no_erasure	4	58	344.1600000000000250111	4780			5	0	0	4		4	6	5	1	0	0	2		
6.6.1	mac	0	2023-10-12	13:30:47	1	1	1	experiment	1	1	3	ITI	230	45	15	6	5	5	no_erasure	5	58	344.1600000000000250111	4780			5	0	0	4		4	6	5	1	0	0	2		
6.6.1	mac	0	2023-10-12	13:30:47	1	1	1	experiment	1	1	3	preFreeze	650	45	15	6	5	5	no_erasure	5	58	344.1600000000000250111	4780			5	0	0	4		4	6	5	1	0	0	2		
6.6.1	mac	0	2023-10-12	13:30:47	1	1	1	experiment	1	1	3	clock	395	45	15	6	5	5	no_erasure	5	31	344.1600000000000250111	4780			5	0	0	4		4	6	5	1	0	0	2		
