build	computer.platform	computer.touch	date	time	subject	group	sessionid	blockcode	blocknum	block	n_blocks	trialcode	latency	n_trials	block_length	best	trial	run_trial	block_type	list.triallist.currentindex	startPos	stim_center_deg	choose_stim	run_trial_dum	n_attention	n_erasure	n_no_erasure	n_clicks	require_attention	require_no_erasure	require_erasure	timeouts_remain	timeout_block	generate_new_erasure	n_curr_block
6.6.1	mac	0	2023-10-11	15:25:54	1	1	1	experiment	1	1	3	ITI	170	45	15	6	1	1		1	0			1	0	0	0		4	6	5	1	0	1	
6.6.1	mac	0	2023-10-11	15:25:54	1	1	1	experiment	1	1	3	preFreeze	620	45	15	6	1	1		1	0			1	0	0	0		4	6	5	1	0	1	
6.6.1	mac	0	2023-10-11	15:25:54	1	1	1	experiment	1	1	3	clock	3895	45	15	6	1	1		1	29			1	0	0	0		4	6	5	1	0	1	
6.6.1	mac	0	2023-10-11	15:25:54	1	1	1	experiment	1	1	3	ISI	300	45	15	6	1	1		1	29			1	0	0	0		4	6	5	1	0	1	
6.6.1	mac	0	2023-10-11	15:25:54	1	1	1	experiment	1	1	3	feedback	1000	45	15	6	1	1		1	29		0	2	0	0	0		4	6	5	1	0	0	
6.6.1	mac	0	2023-10-11	15:25:54	1	1	1	experiment	1	1	3	ITI	320	45	15	6	2	2		2	29		0	2	0	0	0		4	6	5	1	0	0	
6.6.1	mac	0	2023-10-11	15:25:54	1	1	1	experiment	1	1	3	preFreeze	600	45	15	6	2	2		2	29		0	2	0	0	0		4	6	5	1	0	0	
6.6.1	mac	0	2023-10-11	15:25:54	1	1	1	experiment	1	1	3	clock	4213	45	15	6	2	2		2	76		0	2	0	0	0		4	6	5	1	0	0	
6.6.1	mac	0	2023-10-11	15:25:54	1	1	1	experiment	1	1	3	ISI	460	45	15	6	2	2		2	76		0	2	0	0	0		4	6	5	1	0	0	
6.6.1	mac	0	2023-10-11	15:25:54	1	1	1	experiment	1	1	3	feedback	1000	45	15	6	2	2		2	76		0	3	0	0	0		4	6	5	1	0	0	
6.6.1	mac	0	2023-10-11	15:25:54	1	1	1	experiment	1	1	3	ITI	370	45	15	6	3	3		3	76		0	3	0	0	0		4	6	5	1	0	0	
6.6.1	mac	0	2023-10-11	15:25:54	1	1	1	experiment	1	1	3	preFreeze	650	45	15	6	3	3		3	76		0	3	0	0	0		4	6	5	1	0	0	
6.6.1	mac	0	2023-10-11	15:25:54	1	1	1	experiment	1	1	3	clock	1893	45	15	6	3	3		3	16		0	3	0	0	0		4	6	5	1	0	0	
6.6.1	mac	0	2023-10-11	15:25:54	1	1	1	experiment	1	1	3	ISI	400	45	15	6	3	3		3	16		0	3	0	0	0		4	6	5	1	0	0	
6.6.1	mac	0	2023-10-11	15:25:54	1	1	1	experiment	1	1	3	feedback	1000	45	15	6	3	3		3	16		0	4	0	0	0		4	6	5	1	0	0	
6.6.1	mac	0	2023-10-11	15:25:54	1	1	1	experiment	1	1	3	ITI	300	45	15	6	4	4		4	16		0	4	0	0	0		4	6	5	1	0	0	
6.6.1	mac	0	2023-10-11	15:25:54	1	1	1	experiment	1	1	3	preFreeze	580	45	15	6	4	4		4	16		0	4	0	0	0		4	6	5	1	0	0	
6.6.1	mac	0	2023-10-11	15:25:54	1	1	1	experiment	1	1	3	clock	3807	45	15	6	4	4		4	89		0	4	0	0	0		4	6	5	1	0	0	
6.6.1	mac	0	2023-10-11	15:25:54	1	1	1	experiment	1	1	3	ISI	550	45	15	6	4	4		4	89		0	4	0	0	0		4	6	5	1	0	0	
6.6.1	mac	0	2023-10-11	15:25:54	1	1	1	experiment	1	1	3	feedback	1000	45	15	6	4	4		4	89		0	5	0	0	0		4	6	5	1	0	0	
6.6.1	mac	0	2023-10-11	15:25:54	1	1	1	experiment	1	1	3	ITI	360	45	15	6	5	5		5	89		0	5	0	0	0		4	6	5	1	0	0	
6.6.1	mac	0	2023-10-11	15:25:54	1	1	1	experiment	1	1	3	preFreeze	680	45	15	6	5	5		5	89		0	5	0	0	0		4	6	5	1	0	0	
6.6.1	mac	0	2023-10-11	15:25:54	1	1	1	experiment	1	1	3	clock	358	45	15	6	5	5		5	58		0	5	0	0	0		4	6	5	1	0	0	
