build	computer.platform	computer.touch	date	time	subject	group	sessionid	blockcode	blocknum	block	n_blocks	trialcode	latency	n_trials	block_length	best	trial	run_trial	block_type	list.triallist.currentindex	startPos	stim_center_deg	choose_stim	run_trial_dum	n_attention	n_erasure	n_no_erasure	n_clicks	require_attention	require_no_erasure	require_erasure	timeouts_remain	timeout_block	generate_new_erasure	n_curr_block
6.6.1	mac	0	2023-10-11	16:16:19	1	1	1	experiment	1	1	3	ITI	320	45	15	6	1	1		1	0			1	0	0	0		4	6	5	1	0	1	
6.6.1	mac	0	2023-10-11	16:16:19	1	1	1	experiment	1	1	3	preFreeze	610	45	15	6	1	1		1	0			1	0	0	0		4	6	5	1	0	1	
6.6.1	mac	0	2023-10-11	16:16:19	1	1	1	experiment	1	1	3	clock	923	45	15	6	1	1		1	55			1	0	0	0		4	6	5	1	0	1	
6.6.1	mac	0	2023-10-11	16:16:19	1	1	1	experiment	1	1	3	ISI	490	45	15	6	1	1		1	55			1	0	0	0		4	6	5	1	0	1	
6.6.1	mac	0	2023-10-11	16:16:19	1	1	1	experiment	1	1	3	feedback	1000	45	15	6	1	1		1	55		0	2	0	0	0		4	6	5	1	0	0	
6.6.1	mac	0	2023-10-11	16:16:19	1	1	1	experiment	1	1	3	ITI	270	45	15	6	2	2		2	55		0	2	0	0	0		4	6	5	1	0	0	
6.6.1	mac	0	2023-10-11	16:16:19	1	1	1	experiment	1	1	3	preFreeze	600	45	15	6	2	2		2	55		0	2	0	0	0		4	6	5	1	0	0	
6.6.1	mac	0	2023-10-11	16:16:19	1	1	1	experiment	1	1	3	clock	534	45	15	6	2	2		2	55		0	2	0	0	0		4	6	5	1	0	0	
6.6.1	mac	0	2023-10-11	16:16:19	1	1	1	experiment	1	1	3	ISI	250	45	15	6	2	2		2	55		0	2	0	0	0		4	6	5	1	0	0	
6.6.1	mac	0	2023-10-11	16:16:19	1	1	1	experiment	1	1	3	feedback	1000	45	15	6	2	2		2	55		0	3	0	0	0		4	6	5	1	0	0	
6.6.1	mac	0	2023-10-11	16:16:19	1	1	1	experiment	1	1	3	ITI	120	45	15	6	3	3		3	55		0	3	0	0	0		4	6	5	1	0	0	
6.6.1	mac	0	2023-10-11	16:16:19	1	1	1	experiment	1	1	3	preFreeze	580	45	15	6	3	3		3	55		0	3	0	0	0		4	6	5	1	0	0	
6.6.1	mac	0	2023-10-11	16:16:19	1	1	1	experiment	1	1	3	clock	288	45	15	6	3	3		3	53		0	3	0	0	0		4	6	5	1	0	0	
6.6.1	mac	0	2023-10-11	16:16:19	1	1	1	experiment	1	1	3	ISI	320	45	15	6	3	3		3	53		0	3	0	0	0		4	6	5	1	0	0	
6.6.1	mac	0	2023-10-11	16:16:19	1	1	1	experiment	1	1	3	feedback	1000	45	15	6	3	3		3	53		0	4	0	0	0		4	6	5	1	0	0	
6.6.1	mac	0	2023-10-11	16:16:19	1	1	1	experiment	1	1	3	ITI	100	45	15	6	4	4		4	53		0	4	0	0	0		4	6	5	1	0	0	
6.6.1	mac	0	2023-10-11	16:16:19	1	1	1	experiment	1	1	3	preFreeze	650	45	15	6	4	4		4	53		0	4	0	0	0		4	6	5	1	0	0	
6.6.1	mac	0	2023-10-11	16:16:19	1	1	1	experiment	1	1	3	clock	414	45	15	6	4	4		4	15		0	4	0	0	0		4	6	5	1	0	0	
6.6.1	mac	0	2023-10-11	16:16:19	1	1	1	experiment	1	1	3	ISI	450	45	15	6	4	4		4	15		0	4	0	0	0		4	6	5	1	0	0	
6.6.1	mac	0	2023-10-11	16:16:19	1	1	1	experiment	1	1	3	feedback	1000	45	15	6	4	4		4	15		0	5	0	0	0		4	6	5	1	0	0	
6.6.1	mac	0	2023-10-11	16:16:19	1	1	1	experiment	1	1	3	ITI	360	45	15	6	5	5		5	15		0	5	0	0	0		4	6	5	1	0	0	
6.6.1	mac	0	2023-10-11	16:16:19	1	1	1	experiment	1	1	3	preFreeze	620	45	15	6	5	5		5	15		0	5	0	0	0		4	6	5	1	0	0	
6.6.1	mac	0	2023-10-11	16:16:19	1	1	1	experiment	1	1	3	clock	410	45	15	6	5	5		5	60		0	5	0	0	0		4	6	5	1	0	0	
6.6.1	mac	0	2023-10-11	16:16:19	1	1	1	experiment	1	1	3	ISI	240	45	15	6	5	5		5	60		0	5	0	0	0		4	6	5	1	0	0	
6.6.1	mac	0	2023-10-11	16:16:19	1	1	1	experiment	1	1	3	feedback	582	45	15	6	5	5		5	60		0	6	0	0	0		4	6	5	1	0	0	
