build	computer.platform	computer.touch	date	time	subject	group	sessionid	blockcode	blocknum	block	n_blocks	trialcode	latency	n_trials	block_length	best	trial	run_trial	block_type	list.triallist.currentindex	startPos	pos_shifted	rt_shifted	rt_index	list.curr_values.nextvalue	mag	ev	rng	inc	inc_rg	stim_center_deg	choose_stim	run_trial_dum	n_attention	n_erasure	n_no_erasure	n_clicks	require_attention	require_no_erasure	require_erasure	timeouts_remain	timeout_block	generate_new_erasure	n_curr_block	list.degrees_att.currentvalue	list.degrees_era.currentvalue
6.6.1	mac	0	2023-10-12	16:24:37	1	1	1	experiment	1	1	3	ITI	170	45	15	6	1	1	erasure	1	0					0					329	0	1	0	0	0	0	4	6	5	1	0	1	5		239
6.6.1	mac	0	2023-10-12	16:24:37	1	1	1	experiment	1	1	3	preFreeze	610	45	15	6	1	1	erasure	1	0					0					329	0	1	0	0	0	0	4	6	5	1	0	1	5		239
6.6.1	mac	0	2023-10-12	16:24:37	1	1	1	experiment	1	1	3	clock	2604	45	15	6	1	1	erasure	1	94					0					329	0	1	0	0	0	0	4	6	5	1	0	1	5		239
6.6.1	mac	0	2023-10-12	16:24:37	1	1	1	experiment	1	1	3	ISI	300	45	15	6	1	1	erasure	1	94					0					329	0	1	0	0	0	0	4	6	5	1	0	1	5		239
6.6.1	mac	0	2023-10-12	16:24:37	1	1	1	experiment	1	1	3	feedback	1000	45	15	6	1	1	erasure	1	94	255.8880000000000052296	3554	256		10	7	0.3837109204343778224	10	10	329	0	2	0	1	0	0	4	6	5	1	0	0	4		239
6.6.1	mac	0	2023-10-12	16:24:37	1	1	1	experiment	1	1	3	ITI	500	45	15	6	2	2	erasure	2	94			256		10					329	0	2	0	1	0	0	4	6	5	1	0	0	4		239
6.6.1	mac	0	2023-10-12	16:24:37	1	1	1	experiment	1	1	3	preFreeze	690	45	15	6	2	2	erasure	2	94			256		10					329	0	2	0	1	0	0	4	6	5	1	0	0	4		239
6.6.1	mac	0	2023-10-12	16:24:37	1	1	1	experiment	1	1	3	clock	1063	45	15	6	2	2	erasure	2	78			256		10					329	0	2	0	1	0	0	4	6	5	1	0	0	4		239
6.6.1	mac	0	2023-10-12	16:24:37	1	1	1	experiment	1	1	3	ISI	430	45	15	6	2	2	erasure	2	78			256		10					329	0	2	0	1	0	0	4	6	5	1	0	0	4		239
6.6.1	mac	0	2023-10-12	16:24:37	1	1	1	experiment	1	1	3	feedback	1000	45	15	6	2	2	erasure	2	78	87.3359999999999985221	1213	87		9	6.2999999999999998224	0.6923392402688831604	9	10	329	0	3	0	2	0	0	4	6	5	1	0	0	3		239
6.6.1	mac	0	2023-10-12	16:24:37	1	1	1	experiment	1	1	3	ITI	350	45	15	6	3	3	erasure	3	78			87		9					329	0	3	0	2	0	0	4	6	5	1	0	0	3		239
6.6.1	mac	0	2023-10-12	16:24:37	1	1	1	experiment	1	1	3	preFreeze	650	45	15	6	3	3	erasure	3	78			87		9					329	0	3	0	2	0	0	4	6	5	1	0	0	3		239
6.6.1	mac	0	2023-10-12	16:24:37	1	1	1	experiment	1	1	3	clock	359	45	15	6	3	3	erasure	3	68			87		9					329	0	3	0	2	0	0	4	6	5	1	0	0	3		239
6.6.1	mac	0	2023-10-12	16:24:37	1	1	1	experiment	1	1	3	ISI	420	45	15	6	3	3	erasure	3	68			87		9					329	0	3	0	2	0	0	4	6	5	1	0	0	3		239
6.6.1	mac	0	2023-10-12	16:24:37	1	1	1	experiment	1	1	3	feedback	1000	45	15	6	3	3	erasure	3	68	0.6480000000000000204	9	1		42	29.3999999999999985789	0.7728806810390391746	10	10	329	0	4	0	3	0	0	4	6	5	1	0	0	2		239
6.6.1	mac	0	2023-10-12	16:24:37	1	1	1	experiment	1	1	3	ITI	250	45	15	6	4	4	erasure	4	68			1		42					329	0	4	0	3	0	0	4	6	5	1	0	0	2		239
6.6.1	mac	0	2023-10-12	16:24:37	1	1	1	experiment	1	1	3	preFreeze	590	45	15	6	4	4	erasure	4	68			1		42					329	0	4	0	3	0	0	4	6	5	1	0	0	2		239
6.6.1	mac	0	2023-10-12	16:24:37	1	1	1	experiment	1	1	3	clock	259	45	15	6	4	4	erasure	4	38			1		42					329	0	4	0	3	0	0	4	6	5	1	0	0	2		239
6.6.1	mac	0	2023-10-12	16:24:37	1	1	1	experiment	1	1	3	ISI	270	45	15	6	4	4	erasure	4	38			1		42					329	0	4	0	3	0	0	4	6	5	1	0	0	2		239
6.6.1	mac	0	2023-10-12	16:24:37	1	1	1	experiment	1	1	3	feedback	1000	45	15	6	4	4	erasure	4	38	245.4480000000000075033	3409	245		29	20.2999999999999971578	0.7678983006085963181	10	10	329	0	5	0	4	0	0	4	6	5	1	0	0	1		239
6.6.1	mac	0	2023-10-12	16:24:37	1	1	1	experiment	1	1	3	ITI	480	45	15	6	5	5	erasure	5	38			245		29					329	0	5	0	4	0	0	4	6	5	1	0	0	1		239
6.6.1	mac	0	2023-10-12	16:24:37	1	1	1	experiment	1	1	3	preFreeze	630	45	15	6	5	5	erasure	5	38			245		29					329	0	5	0	4	0	0	4	6	5	1	0	0	1		239
6.6.1	mac	0	2023-10-12	16:24:37	1	1	1	experiment	1	1	3	clock	328	45	15	6	5	5	erasure	5	76			245		29					329	0	5	0	4	0	0	4	6	5	1	0	0	1		239
6.6.1	mac	0	2023-10-12	16:24:37	1	1	1	experiment	1	1	3	ISI	450	45	15	6	5	5	erasure	5	76			245		29					329	0	5	0	4	0	0	4	6	5	1	0	0	1		239
6.6.1	mac	0	2023-10-12	16:24:37	1	1	1	experiment	1	1	3	feedback	1000	45	15	6	5	5	erasure	5	76	27.21600000000000108	378	27		41	28.6999999999999992895	0.3140561090116519849	41	41	329	0	6	0	5	0	0	4	6	5	1	0	0	0		239
6.6.1	mac	0	2023-10-12	16:24:37	1	1	1	experiment	1	1	3	ITI	340	45	15	6	6	6	erasure	6	76			27		41					329	0	6	0	5	0	0	4	6	5	1	0	0	0		239
6.6.1	mac	0	2023-10-12	16:24:37	1	1	1	experiment	1	1	3	preFreeze	620	45	15	6	6	6	erasure	6	76			27		41					329	0	6	0	5	0	0	4	6	5	1	0	0	0		239
6.6.1	mac	0	2023-10-12	16:24:37	1	1	1	experiment	1	1	3	clock	336	45	15	6	6	6	erasure	6	13			27		41					329	0	6	0	5	0	0	4	6	5	1	0	0	0		239
6.6.1	mac	0	2023-10-12	16:24:37	1	1	1	experiment	1	1	3	ISI	480	45	15	6	6	6	erasure	6	13			27		41					329	0	6	0	5	0	0	4	6	5	1	0	0	0		239
6.6.1	mac	0	2023-10-12	16:24:37	1	1	1	experiment	1	1	3	feedback	1000	45	15	6	6	6	erasure	6	13	160.9919999999999902229	2236	161		137	95.8999999999999914735	0.6196301799778897168	137	137	329	0	7	0	6	0	0	4	6	5	1	0	0	-1		239
6.6.1	mac	0	2023-10-12	16:24:37	1	1	1	experiment	1	1	3	ITI	230	45	15	6	7	7	erasure	7	13			161		137					329	0	7	0	6	0	0	4	6	5	1	0	0	-1		239
6.6.1	mac	0	2023-10-12	16:24:37	1	1	1	experiment	1	1	3	preFreeze	600	45	15	6	7	7	erasure	7	13			161		137					329	0	7	0	6	0	0	4	6	5	1	0	0	-1		239
6.6.1	mac	0	2023-10-12	16:24:37	1	1	1	experiment	1	1	3	clock	1768	45	15	6	7	7	erasure	7	10			161		137					329	0	7	0	6	0	0	4	6	5	1	0	0	-1		239
6.6.1	mac	0	2023-10-12	16:24:37	1	1	1	experiment	1	1	3	ISI	500	45	15	6	7	7	erasure	7	10			161		137					329	0	7	0	6	0	0	4	6	5	1	0	0	-1		239
6.6.1	mac	0	2023-10-12	16:24:37	1	1	1	experiment	1	1	3	feedback	1000	45	15	6	7	7	erasure	7	10	253.2959999999999922693	3518	253		38	26.5999999999999978684	0.6028699708643532329	38	38	329	0	8	0	7	0	0	4	6	5	1	0	0	-2		239
6.6.1	mac	0	2023-10-12	16:24:37	1	1	1	experiment	1	1	3	ITI	180	45	15	6	8	8	erasure	8	10			253		38					329	0	8	0	7	0	0	4	6	5	1	0	0	-2		239
6.6.1	mac	0	2023-10-12	16:24:37	1	1	1	experiment	1	1	3	preFreeze	500	45	15	6	8	8	erasure	8	10			253		38					329	0	8	0	7	0	0	4	6	5	1	0	0	-2		239
6.6.1	mac	0	2023-10-12	16:24:37	1	1	1	experiment	1	1	3	clock	549	45	15	6	8	8	erasure	8	83			253		38					329	0	8	0	7	0	0	4	6	5	1	0	0	-2		239
6.6.1	mac	0	2023-10-12	16:24:37	1	1	1	experiment	1	1	3	ISI	360	45	15	6	8	8	erasure	8	83			253		38					329	0	8	0	7	0	0	4	6	5	1	0	0	-2		239
6.6.1	mac	0	2023-10-12	16:24:37	1	1	1	experiment	1	1	3	feedback	1000	45	15	6	8	8	erasure	8	83	68.3280000000000029559	949	68		11	7.6999999999999992895	0.2536981902675931599	11	11	329	0	9	0	8	0	0	4	6	5	1	0	0	-3		239
6.6.1	mac	0	2023-10-12	16:24:37	1	1	1	experiment	1	1	3	ITI	160	45	15	6	9	9	erasure	9	83			68		11					329	0	9	0	8	0	0	4	6	5	1	0	0	-3		239
6.6.1	mac	0	2023-10-12	16:24:37	1	1	1	experiment	1	1	3	preFreeze	520	45	15	6	9	9	erasure	9	83			68		11					329	0	9	0	8	0	0	4	6	5	1	0	0	-3		239
6.6.1	mac	0	2023-10-12	16:24:37	1	1	1	experiment	1	1	3	clock	939	45	15	6	9	9	erasure	9	80			68		11					329	0	9	0	8	0	0	4	6	5	1	0	0	-3		239
