build	computer.platform	computer.touch	date	time	subject	group	sessionid	blockcode	blocknum	block	n_blocks	trialcode	latency	n_trials	block_length	best	trial	run_trial	block_type	list.triallist.currentindex	startPos	stim_center_deg	choose_stim	run_trial_dum	n_attention	n_erasure	n_no_erasure	n_clicks	require_attention	require_no_erasure	require_erasure	timeouts_remain	timeout_block	generate_new_erasure	n_curr_block
6.6.1	mac	0	2023-10-11	15:11:15	1	1	1	experiment	1	1	3	ITI	370	45	15	6	1	1		1	0			1	0	0	0		4	6	5	1	0	1	
6.6.1	mac	0	2023-10-11	15:11:15	1	1	1	experiment	1	1	3	preFreeze	640	45	15	6	1	1		1	0			1	0	0	0		4	6	5	1	0	1	
6.6.1	mac	0	2023-10-11	15:11:15	1	1	1	experiment	1	1	3	clock	1676	45	15	6	1	1		1	3			1	0	0	0		4	6	5	1	0	1	
6.6.1	mac	0	2023-10-11	15:11:15	1	1	1	experiment	1	1	3	ISI	230	45	15	6	1	1		1	3			1	0	0	0		4	6	5	1	0	1	
6.6.1	mac	0	2023-10-11	15:11:15	1	1	1	experiment	1	1	3	feedback	1000	45	15	6	1	1		1	3		0	2	0	0	0		4	6	5	1	0	0	
6.6.1	mac	0	2023-10-11	15:11:15	1	1	1	experiment	1	1	3	ITI	150	45	15	6	2	2		2	3		0	2	0	0	0		4	6	5	1	0	0	
6.6.1	mac	0	2023-10-11	15:11:15	1	1	1	experiment	1	1	3	preFreeze	610	45	15	6	2	2		2	3		0	2	0	0	0		4	6	5	1	0	0	
6.6.1	mac	0	2023-10-11	15:11:15	1	1	1	experiment	1	1	3	clock	1412	45	15	6	2	2		2	19		0	2	0	0	0		4	6	5	1	0	0	
6.6.1	mac	0	2023-10-11	15:11:15	1	1	1	experiment	1	1	3	ISI	310	45	15	6	2	2		2	19		0	2	0	0	0		4	6	5	1	0	0	
6.6.1	mac	0	2023-10-11	15:11:15	1	1	1	experiment	1	1	3	feedback	1000	45	15	6	2	2		2	19		0	3	0	0	0		4	6	5	1	0	0	
6.6.1	mac	0	2023-10-11	15:11:15	1	1	1	experiment	1	1	3	ITI	430	45	15	6	3	3		3	19		0	3	0	0	0		4	6	5	1	0	0	
6.6.1	mac	0	2023-10-11	15:11:15	1	1	1	experiment	1	1	3	preFreeze	690	45	15	6	3	3		3	19		0	3	0	0	0		4	6	5	1	0	0	
6.6.1	mac	0	2023-10-11	15:11:15	1	1	1	experiment	1	1	3	clock	1073	45	15	6	3	3		3	77		0	3	0	0	0		4	6	5	1	0	0	
6.6.1	mac	0	2023-10-11	15:11:15	1	1	1	experiment	1	1	3	ISI	550	45	15	6	3	3		3	77		0	3	0	0	0		4	6	5	1	0	0	
6.6.1	mac	0	2023-10-11	15:11:15	1	1	1	experiment	1	1	3	feedback	1000	45	15	6	3	3		3	77		0	4	0	0	0		4	6	5	1	0	0	
6.6.1	mac	0	2023-10-11	15:11:15	1	1	1	experiment	1	1	3	ITI	180	45	15	6	4	4		4	77		0	4	0	0	0		4	6	5	1	0	0	
6.6.1	mac	0	2023-10-11	15:11:15	1	1	1	experiment	1	1	3	preFreeze	560	45	15	6	4	4		4	77		0	4	0	0	0		4	6	5	1	0	0	
6.6.1	mac	0	2023-10-11	15:11:15	1	1	1	experiment	1	1	3	clock	836	45	15	6	4	4		4	98		0	4	0	0	0		4	6	5	1	0	0	
6.6.1	mac	0	2023-10-11	15:11:15	1	1	1	experiment	1	1	3	ISI	470	45	15	6	4	4		4	98		0	4	0	0	0		4	6	5	1	0	0	
6.6.1	mac	0	2023-10-11	15:11:15	1	1	1	experiment	1	1	3	feedback	1000	45	15	6	4	4		4	98		0	5	0	0	0		4	6	5	1	0	0	
6.6.1	mac	0	2023-10-11	15:11:15	1	1	1	experiment	1	1	3	ITI	480	45	15	6	5	5		5	98		0	5	0	0	0		4	6	5	1	0	0	
6.6.1	mac	0	2023-10-11	15:11:15	1	1	1	experiment	1	1	3	preFreeze	520	45	15	6	5	5		5	98		0	5	0	0	0		4	6	5	1	0	0	
6.6.1	mac	0	2023-10-11	15:11:15	1	1	1	experiment	1	1	3	clock	880	45	15	6	5	5		5	36		0	5	0	0	0		4	6	5	1	0	0	
6.6.1	mac	0	2023-10-11	15:11:15	1	1	1	experiment	1	1	3	ISI	520	45	15	6	5	5		5	36		0	5	0	0	0		4	6	5	1	0	0	
6.6.1	mac	0	2023-10-11	15:11:15	1	1	1	experiment	1	1	3	feedback	1000	45	15	6	5	5		5	36		0	6	0	0	0		4	6	5	1	0	0	
6.6.1	mac	0	2023-10-11	15:11:15	1	1	1	experiment	1	1	3	ITI	130	45	15	6	6	6		6	36		0	6	0	0	0		4	6	5	1	0	0	
6.6.1	mac	0	2023-10-11	15:11:15	1	1	1	experiment	1	1	3	preFreeze	530	45	15	6	6	6		6	36		0	6	0	0	0		4	6	5	1	0	0	
6.6.1	mac	0	2023-10-11	15:11:15	1	1	1	experiment	1	1	3	clock	282	45	15	6	6	6		6	48		0	6	0	0	0		4	6	5	1	0	0	
