build	computer.platform	computer.touch	date	time	subject	group	sessionid	blockcode	blocknum	block	n_blocks	trialcode	latency	n_trials	block_length	best	trial	run_trial	block_type	list.triallist.currentindex	startPos	stim_center_deg	choose_stim	run_trial_dum	n_attention	n_erasure	n_no_erasure	n_clicks	require_attention	require_no_erasure	require_erasure	timeouts_remain	timeout_block	generate_new_erasure	n_curr_block
6.6.1	mac	0	2023-10-11	16:22:26	1	1	1	experiment	1	1	3	ITI	140	45	15	6	1	1	erasure	1	0	0	0	1	0	0	0	0	4	6	5	1	0	1	5
6.6.1	mac	0	2023-10-11	16:22:26	1	1	1	experiment	1	1	3	preFreeze	510	45	15	6	1	1	erasure	1	0	0	0	1	0	0	0	0	4	6	5	1	0	1	5
6.6.1	mac	0	2023-10-11	16:22:26	1	1	1	experiment	1	1	3	clock	1229	45	15	6	1	1	erasure	1	10	0	0	1	0	0	0	0	4	6	5	1	0	1	5
6.6.1	mac	0	2023-10-11	16:22:26	1	1	1	experiment	1	1	3	ISI	400	45	15	6	1	1	erasure	1	10	0	0	1	0	0	0	0	4	6	5	1	0	1	5
6.6.1	mac	0	2023-10-11	16:22:26	1	1	1	experiment	1	1	3	feedback	1000	45	15	6	1	1	erasure	1	10	0	0	2	0	1	0	0	4	6	5	1	0	0	4
6.6.1	mac	0	2023-10-11	16:22:26	1	1	1	experiment	1	1	3	ITI	340	45	15	6	2	2	erasure	2	10	0	0	2	0	1	0	0	4	6	5	1	0	0	4
6.6.1	mac	0	2023-10-11	16:22:26	1	1	1	experiment	1	1	3	preFreeze	630	45	15	6	2	2	erasure	2	10	0	0	2	0	1	0	0	4	6	5	1	0	0	4
6.6.1	mac	0	2023-10-11	16:22:26	1	1	1	experiment	1	1	3	clock	2107	45	15	6	2	2	erasure	2	99	0	0	2	0	1	0	0	4	6	5	1	0	0	4
6.6.1	mac	0	2023-10-11	16:22:26	1	1	1	experiment	1	1	3	ISI	600	45	15	6	2	2	erasure	2	99	0	0	2	0	1	0	0	4	6	5	1	0	0	4
6.6.1	mac	0	2023-10-11	16:22:26	1	1	1	experiment	1	1	3	feedback	1000	45	15	6	2	2	erasure	2	99	0	0	3	0	2	0	0	4	6	5	1	0	0	3
6.6.1	mac	0	2023-10-11	16:22:26	1	1	1	experiment	1	1	3	ITI	360	45	15	6	3	3	erasure	3	99	0	0	3	0	2	0	0	4	6	5	1	0	0	3
6.6.1	mac	0	2023-10-11	16:22:26	1	1	1	experiment	1	1	3	preFreeze	680	45	15	6	3	3	erasure	3	99	0	0	3	0	2	0	0	4	6	5	1	0	0	3
6.6.1	mac	0	2023-10-11	16:22:26	1	1	1	experiment	1	1	3	clock	1419	45	15	6	3	3	erasure	3	48	0	0	3	0	2	0	0	4	6	5	1	0	0	3
6.6.1	mac	0	2023-10-11	16:22:26	1	1	1	experiment	1	1	3	ISI	390	45	15	6	3	3	erasure	3	48	0	0	3	0	2	0	0	4	6	5	1	0	0	3
6.6.1	mac	0	2023-10-11	16:22:26	1	1	1	experiment	1	1	3	feedback	1000	45	15	6	3	3	erasure	3	48	0	1	4	0	3	0	1	4	6	5	1	0	0	2
6.6.1	mac	0	2023-10-11	16:22:26	1	1	1	experiment	1	1	3	ITI	210	45	15	6	4	4	erasure	4	48	0	1	4	0	3	0	1	4	6	5	1	0	0	2
6.6.1	mac	0	2023-10-11	16:22:26	1	1	1	experiment	1	1	3	preFreeze	570	45	15	6	4	4	erasure	4	48	0	1	4	0	3	0	1	4	6	5	1	0	0	2
6.6.1	mac	0	2023-10-11	16:22:26	1	1	1	experiment	1	1	3	clock	968	45	15	6	4	4	erasure	4	41	0	1	4	0	3	0	1	4	6	5	1	0	0	2
6.6.1	mac	0	2023-10-11	16:22:26	1	1	1	experiment	1	1	3	ISI	360	45	15	6	4	4	erasure	4	41	0	1	4	0	3	0	1	4	6	5	1	0	0	2
6.6.1	mac	0	2023-10-11	16:22:26	1	1	1	experiment	1	1	3	feedback	1000	45	15	6	4	4	erasure	4	41	0	0	5	0	4	0	1	4	6	5	1	0	0	1
6.6.1	mac	0	2023-10-11	16:22:26	1	1	1	experiment	1	1	3	ITI	330	45	15	6	5	5	erasure	5	41	0	0	5	0	4	0	1	4	6	5	1	0	0	1
6.6.1	mac	0	2023-10-11	16:22:26	1	1	1	experiment	1	1	3	preFreeze	670	45	15	6	5	5	erasure	5	41	0	0	5	0	4	0	1	4	6	5	1	0	0	1
6.6.1	mac	0	2023-10-11	16:22:26	1	1	1	experiment	1	1	3	clock	1295	45	15	6	5	5	erasure	5	78	0	0	5	0	4	0	1	4	6	5	1	0	0	1
6.6.1	mac	0	2023-10-11	16:22:26	1	1	1	experiment	1	1	3	ISI	330	45	15	6	5	5	erasure	5	78	0	0	5	0	4	0	1	4	6	5	1	0	0	1
6.6.1	mac	0	2023-10-11	16:22:26	1	1	1	experiment	1	1	3	feedback	1000	45	15	6	5	5	erasure	5	78	0	0	6	0	5	0	1	4	6	5	1	0	0	0
6.6.1	mac	0	2023-10-11	16:22:26	1	1	1	experiment	1	1	3	ITI	270	45	15	6	6	6	erasure	6	78	0	0	6	0	5	0	1	4	6	5	1	0	0	0
6.6.1	mac	0	2023-10-11	16:22:26	1	1	1	experiment	1	1	3	preFreeze	520	45	15	6	6	6	erasure	6	78	0	0	6	0	5	0	1	4	6	5	1	0	0	0
6.6.1	mac	0	2023-10-11	16:22:26	1	1	1	experiment	1	1	3	clock	569	45	15	6	6	6	erasure	6	79	0	0	6	0	5	0	1	4	6	5	1	0	0	0
6.6.1	mac	0	2023-10-11	16:22:26	1	1	1	experiment	1	1	3	ISI	460	45	15	6	6	6	erasure	6	79	0	0	6	0	5	0	1	4	6	5	1	0	0	0
6.6.1	mac	0	2023-10-11	16:22:26	1	1	1	experiment	1	1	3	feedback	153	45	15	6	6	6	erasure	6	79	0	0	7	0	6	0	1	4	6	5	1	0	0	-1
