build	computer.platform	computer.touch	date	time	subject	group	sessionid	blockcode	blocknum	block	n_blocks	trialcode	latency	n_trials	block_length	best	lower_quartile	upper_quartile	list.curr_values_temp.median	erasure_index	erasure_RT	erasure_value	erasure_degrees	trial	run_trial	block_type	list.triallist.currentindex	startPos	pos_shifted	rt_shifted	rt_index	list.curr_values.currentvalue	mag	ev	rng	inc	inc_rg	stim_center_deg	choose_stim	run_trial_dum	n_attention	n_erasure	n_no_erasure	n_clicks	require_attention	require_no_erasure	require_erasure	timeouts_remain	timeout_block	generate_new_erasure	n_curr_block	list.degrees_att.currentvalue	list.degrees_era.currentvalue
6.6.1	mac	0	2023-10-16	16:54:32	1	1	1	experiment	1	1	4	ITI	320	45	10	6	11	75.5	32	46	46	18		1	1	attention	1	0					0					182	0	1	0	0	0	0	3	3	4	1	0	1	3	92	45
6.6.1	mac	0	2023-10-16	16:54:32	1	1	1	experiment	1	1	4	preFreeze	670	45	10	6	11	75.5	32	46	46	18		1	1	attention	1	0					0					182	0	1	0	0	0	0	3	3	4	1	0	1	3	92	45
6.6.1	mac	0	2023-10-16	16:54:32	1	1	1	experiment	1	1	4	clock	380	45	10	6	11	75.5	32	46	46	18		1	1	attention	1	63					0					182	0	1	0	0	0	0	3	3	4	1	0	1	3	92	45
6.6.1	mac	0	2023-10-16	16:54:32	1	1	1	experiment	1	1	4	ISI	270	45	10	6	11	75.5	32	46	46	18		1	1	attention	1	63					0					182	0	1	0	0	0	0	3	3	4	1	0	1	3	92	45
6.6.1	mac	0	2023-10-16	16:54:32	1	1	1	experiment	1	1	4	feedback	1000	45	10	6	11	75.5	32	46	46	18		1	1	attention	1	63	344.1600000000000250111	4780	344		33	23.0999999999999978684	0.9142125805174495801	10	10	182	0	2	1	0	0	0	3	3	4	1	0	0	2	92	45
6.6.1	mac	0	2023-10-16	16:54:32	1	1	1	experiment	1	1	4	ITI	280	45	10	6	11	75.5	32	46	46	18		2	2	attention	2	63			344		33					182	0	2	1	0	0	0	3	3	4	1	0	0	2	92	45
6.6.1	mac	0	2023-10-16	16:54:32	1	1	1	experiment	1	1	4	preFreeze	640	45	10	6	11	75.5	32	46	46	18		2	2	attention	2	63			344		33					182	0	2	1	0	0	0	3	3	4	1	0	0	2	92	45
6.6.1	mac	0	2023-10-16	16:54:32	1	1	1	experiment	1	1	4	clock	293	45	10	6	11	75.5	32	46	46	18		2	2	attention	2	9			344		33					182	0	2	1	0	0	0	3	3	4	1	0	0	2	92	45
6.6.1	mac	0	2023-10-16	16:54:32	1	1	1	experiment	1	1	4	ISI	200	45	10	6	11	75.5	32	46	46	18		2	2	attention	2	9			344		33					182	0	2	1	0	0	0	3	3	4	1	0	0	2	92	45
6.6.1	mac	0	2023-10-16	16:54:32	1	1	1	experiment	1	1	4	feedback	1000	45	10	6	11	75.5	32	46	46	18		2	2	attention	2	9	143.4960000000000093223	1993	143		120	84	0.7408612483974689189	10	10	182	0	3	2	0	0	0	3	3	4	1	0	0	1	92	45
6.6.1	mac	0	2023-10-16	16:54:32	1	1	1	experiment	1	1	4	ITI	480	45	10	6	11	75.5	32	46	46	18		3	3	attention	3	9			143		120					182	0	3	2	0	0	0	3	3	4	1	0	0	1	92	45
6.6.1	mac	0	2023-10-16	16:54:32	1	1	1	experiment	1	1	4	preFreeze	660	45	10	6	11	75.5	32	46	46	18		3	3	attention	3	9			143		120					182	0	3	2	0	0	0	3	3	4	1	0	0	1	92	45
6.6.1	mac	0	2023-10-16	16:54:32	1	1	1	experiment	1	1	4	clock	394	45	10	6	11	75.5	32	46	46	18		3	3	attention	3	94			143		120					182	0	3	2	0	0	0	3	3	4	1	0	0	1	92	45
6.6.1	mac	0	2023-10-16	16:54:32	1	1	1	experiment	1	1	4	ISI	500	45	10	6	11	75.5	32	46	46	18		3	3	attention	3	94			143		120					182	0	3	2	0	0	0	3	3	4	1	0	0	1	92	45
6.6.1	mac	0	2023-10-16	16:54:32	1	1	1	experiment	1	1	4	feedback	1000	45	10	6	11	75.5	32	46	46	18		3	3	attention	3	94	96.7680000000000006821	1344	97		12	8.3999999999999985789	0.0180607745465964017	12	12	182	0	4	3	0	0	0	3	3	4	1	0	0	0	92	45
6.6.1	mac	0	2023-10-16	16:54:32	1	1	1	experiment	1	1	4	ITI	160	45	10	6	11	75.5	32	46	46	18		4	4	no_erasure	4	94			97		12					182		4	3	0	0	0	3	3	4	0	1	0	1	92	45
6.6.1	mac	0	2023-10-16	16:54:32	1	1	1	experiment	1	1	4	preFreeze	520	45	10	6	11	75.5	32	46	46	18		4	4	no_erasure	4	94			97		12					182		4	3	0	0	0	3	3	4	0	1	0	1	92	45
6.6.1	mac	0	2023-10-16	16:54:32	1	1	1	experiment	1	1	4	clock	396	45	10	6	11	75.5	32	46	46	18		4	4	no_erasure	4	67			97		12					182		4	3	0	0	0	3	3	4	0	1	0	1	92	45
6.6.1	mac	0	2023-10-16	16:54:32	1	1	1	experiment	1	1	4	ISI	420	45	10	6	11	75.5	32	46	46	18		4	4	no_erasure	4	67			97		12					182		4	3	0	0	0	3	3	4	0	1	0	1	92	45
6.6.1	mac	0	2023-10-16	16:54:32	1	1	1	experiment	1	1	4	feedback	1000	45	10	6	11	75.5	32	46	46	18		4	4	no_erasure	4	67	359.7119999999999890861	4996	360		37	25.8999999999999985789	0.2869935937428366168	37	37	182		5	3	0	1	0	3	3	4	0	1	0	0	92	45
6.6.1	mac	0	2023-10-16	16:54:32	1	1	1	experiment	1	1	4	ITI	410	45	10	6	11	75.5	32	46	46	18		5	5	no_erasure	5	67			360		37					182		5	3	0	1		3	3	4	1	0	1	1	92	45
6.6.1	mac	0	2023-10-16	16:54:32	1	1	1	experiment	1	1	4	preFreeze	620	45	10	6	11	75.5	32	46	46	18		5	5	no_erasure	5	67			360		37					182		5	3	0	1		3	3	4	1	0	1	1	92	45
6.6.1	mac	0	2023-10-16	16:54:32	1	1	1	experiment	1	1	4	clock	322	45	10	6	11	75.5	32	46	46	18		5	5	no_erasure	5	96			360		37					182		5	3	0	1		3	3	4	1	0	1	1	92	45
6.6.1	mac	0	2023-10-16	16:54:32	1	1	1	experiment	1	1	4	ISI	550	45	10	6	11	75.5	32	46	46	18		5	5	no_erasure	5	96			360		37					182		5	3	0	1		3	3	4	1	0	1	1	92	45
6.6.1	mac	0	2023-10-16	16:54:32	1	1	1	experiment	1	1	4	feedback	1000	45	10	6	11	75.5	32	46	46	18		5	5	no_erasure	5	96	98.7840000000000060254	1372	99		11	7.6999999999999992895	0.5039813263583884373	11	11	182		6	3	0	2		3	3	4	1	0	0	0	92	45
6.6.1	mac	0	2023-10-16	16:54:32	1	1	1	experiment	1	1	4	ITI	360	45	10	6	11	75.5	32	46	46	18		6	6	erasure	6	96			99		11					135	0	6	3	0	2	0	3	3	4	1	0	1	4	92	45
6.6.1	mac	0	2023-10-16	16:54:32	1	1	1	experiment	1	1	4	preFreeze	510	45	10	6	11	75.5	32	46	46	18		6	6	erasure	6	96			99		11					135	0	6	3	0	2	0	3	3	4	1	0	1	4	92	45
6.6.1	mac	0	2023-10-16	16:54:32	1	1	1	experiment	1	1	4	clock	358	45	10	6	11	75.5	32	46	46	18		6	6	erasure	6	1			99		11					135	0	6	3	0	2	0	3	3	4	1	0	1	4	92	45
6.6.1	mac	0	2023-10-16	16:54:32	1	1	1	experiment	1	1	4	ISI	600	45	10	6	11	75.5	32	46	46	18		6	6	erasure	6	1			99		11					135	0	6	3	0	2	0	3	3	4	1	0	1	4	92	45
6.6.1	mac	0	2023-10-16	16:54:32	1	1	1	experiment	1	1	4	feedback	1000	45	10	6	11	75.5	32	46	46	18		6	6	erasure	6	1	119.3760000000000047748	1658	119		22	15.3999999999999985789	0.5842862992045204651	22	22	135	0	7	3	1	2	0	3	3	4	1	0	0	3	92	45
6.6.1	mac	0	2023-10-16	16:54:32	1	1	1	experiment	1	1	4	ITI	100	45	10	6	11	75.5	32	46	46	18		7	7	erasure	7	1			119		22					135	0	7	3	1	2	0	3	3	4	1	0	0	3	92	45
6.6.1	mac	0	2023-10-16	16:54:32	1	1	1	experiment	1	1	4	preFreeze	600	45	10	6	11	75.5	32	46	46	18		7	7	erasure	7	1			119		22					135	0	7	3	1	2	0	3	3	4	1	0	0	3	92	45
6.6.1	mac	0	2023-10-16	16:54:32	1	1	1	experiment	1	1	4	clock	406	45	10	6	11	75.5	32	46	46	18		7	7	erasure	7	19			119		22					135	0	7	3	1	2	0	3	3	4	1	0	0	3	92	45
6.6.1	mac	0	2023-10-16	16:54:32	1	1	1	experiment	1	1	4	ISI	330	45	10	6	11	75.5	32	46	46	18		7	7	erasure	7	19			119		22					135	0	7	3	1	2	0	3	3	4	1	0	0	3	92	45
6.6.1	mac	0	2023-10-16	16:54:32	1	1	1	experiment	1	1	4	feedback	1000	45	10	6	11	75.5	32	46	46	18		7	7	erasure	7	19	187.6320000000000050022	2606	188		163	114.0999999999999943157	0.8241646866836037644	10	10	135	0	8	3	2	2	0	3	3	4	1	0	0	2	92	45
6.6.1	mac	0	2023-10-16	16:54:32	1	1	1	experiment	1	1	4	ITI	330	45	10	6	11	75.5	32	46	46	18		8	8	erasure	8	19			188		163					135	0	8	3	2	2	0	3	3	4	1	0	0	2	92	45
6.6.1	mac	0	2023-10-16	16:54:32	1	1	1	experiment	1	1	4	preFreeze	690	45	10	6	11	75.5	32	46	46	18		8	8	erasure	8	19			188		163					135	0	8	3	2	2	0	3	3	4	1	0	0	2	92	45
6.6.1	mac	0	2023-10-16	16:54:32	1	1	1	experiment	1	1	4	clock	825	45	10	6	11	75.5	32	46	46	18		8	8	erasure	8	8			188		163					135	0	8	3	2	2	0	3	3	4	1	0	0	2	92	45
6.6.1	mac	0	2023-10-16	16:54:32	1	1	1	experiment	1	1	4	ISI	560	45	10	6	11	75.5	32	46	46	18		8	8	erasure	8	8			188		163					135	0	8	3	2	2	0	3	3	4	1	0	0	2	92	45
6.6.1	mac	0	2023-10-16	16:54:32	1	1	1	experiment	1	1	4	feedback	1000	45	10	6	11	75.5	32	46	46	18		8	8	erasure	8	8	178.1999999999999886313	2475	178		143	100.0999999999999943157	0.0931595438376906226	143	143	135	0	9	3	3	2	0	3	3	4	1	0	0	1	92	45
6.6.1	mac	0	2023-10-16	16:54:32	1	1	1	experiment	1	1	4	ITI	240	45	10	6	11	75.5	32	46	46	18		9	9	erasure	9	8			178		143					135	0	9	3	3	2	0	3	3	4	1	0	0	1	92	45
6.6.1	mac	0	2023-10-16	16:54:32	1	1	1	experiment	1	1	4	preFreeze	560	45	10	6	11	75.5	32	46	46	18		9	9	erasure	9	8			178		143					135	0	9	3	3	2	0	3	3	4	1	0	0	1	92	45
6.6.1	mac	0	2023-10-16	16:54:32	1	1	1	experiment	1	1	4	clock	751	45	10	6	11	75.5	32	46	46	18		9	9	erasure	9	12			178		143					135	0	9	3	3	2	0	3	3	4	1	0	0	1	92	45
6.6.1	mac	0	2023-10-16	16:54:32	1	1	1	experiment	1	1	4	ISI	360	45	10	6	11	75.5	32	46	46	18		9	9	erasure	9	12			178		143					135	0	9	3	3	2	0	3	3	4	1	0	0	1	92	45
6.6.1	mac	0	2023-10-16	16:54:32	1	1	1	experiment	1	1	4	feedback	1000	45	10	6	11	75.5	32	46	46	18		9	9	erasure	9	12	187.2719999999999913598	2601	187		152	106.3999999999999914735	0.0735412426464122776	152	150	135	0	10	3	4	2	0	3	3	4	1	0	0	0	92	45
6.6.1	mac	0	2023-10-16	16:54:32	1	1	1	experiment	1	1	4	ITI	220	45	10	6	11	75.5	32	46	46	18		10	10	no_erasure	10	12			187		152					135		10	3	4	2	0	3	3	4	0	1	0	1	92	45
6.6.1	mac	0	2023-10-16	16:54:32	1	1	1	experiment	1	1	4	preFreeze	650	45	10	6	11	75.5	32	46	46	18		10	10	no_erasure	10	12			187		152					135		10	3	4	2	0	3	3	4	0	1	0	1	92	45
6.6.1	mac	0	2023-10-16	16:54:32	1	1	1	experiment	1	1	4	clock	581	45	10	6	11	75.5	32	46	46	18		10	10	no_erasure	10	38			187		152					135		10	3	4	2	0	3	3	4	0	1	0	1	92	45
6.6.1	mac	0	2023-10-16	16:54:32	1	1	1	experiment	1	1	4	ISI	430	45	10	6	11	75.5	32	46	46	18		10	10	no_erasure	10	38			187		152					135		10	3	4	2	0	3	3	4	0	1	0	1	92	45
6.6.1	mac	0	2023-10-16	16:54:32	1	1	1	experiment	1	1	4	feedback	1000	45	10	6	11	75.5	32	46	46	18		10	10	no_erasure	10	38	268.6320000000000050022	3731	269		38	26.5999999999999978684	0.1116730899344368644	38	38	135		11	3	4	3	0	3	3	4	0	1	0	0	92	45
6.6.1	mac	0	2023-10-16	16:54:32	1	1	1	experiment	2	2	4	ITI	200	45	10	6	11	75.5	32	183	46	18		11	1	no_erasure	1	38			269		38					135		1	0	0	0		3	3	4	1	0	1	1	92	45
6.6.1	mac	0	2023-10-16	16:54:32	1	1	1	experiment	2	2	4	preFreeze	680	45	10	6	11	75.5	32	183	46	18		11	1	no_erasure	1	38			269		38					135		1	0	0	0		3	3	4	1	0	1	1	92	45
6.6.1	mac	0	2023-10-16	16:54:32	1	1	1	experiment	2	2	4	clock	509	45	10	6	11	75.5	32	183	46	18		11	1	no_erasure	1	25			269		38					135		1	0	0	0		3	3	4	1	0	1	1	92	45
6.6.1	mac	0	2023-10-16	16:54:32	1	1	1	experiment	2	2	4	ISI	380	45	10	6	11	75.5	32	183	46	18		11	1	no_erasure	1	25			269		38					135		1	0	0	0		3	3	4	1	0	1	1	92	45
6.6.1	mac	0	2023-10-16	16:54:32	1	1	1	experiment	2	2	4	feedback	1000	45	10	6	11	75.5	32	183	46	18		11	1	no_erasure	1	25	216.6479999999999961346	3009	217		157	109.8999999999999914735	0.3038926854040223668	157	150	135		2	0	0	1		3	3	4	1	0	0	0	92	45
6.6.1	mac	0	2023-10-16	16:54:32	1	1	1	experiment	2	2	4	ITI	390	45	10	6	11	75.5	32	183	46	18		12	2	erasure	2	25			217		157					135	0	2	0	0	1	0	3	3	4	1	0	1	4	92	45
6.6.1	mac	0	2023-10-16	16:54:32	1	1	1	experiment	2	2	4	preFreeze	530	45	10	6	11	75.5	32	183	46	18		12	2	erasure	2	25			217		157					135	0	2	0	0	1	0	3	3	4	1	0	1	4	92	45
6.6.1	mac	0	2023-10-16	16:54:32	1	1	1	experiment	2	2	4	clock	423	45	10	6	11	75.5	32	183	46	18		12	2	erasure	2	21			217		157					135	0	2	0	0	1	0	3	3	4	1	0	1	4	92	45
6.6.1	mac	0	2023-10-16	16:54:32	1	1	1	experiment	2	2	4	ISI	240	45	10	6	11	75.5	32	183	46	18		12	2	erasure	2	21			217		157					135	0	2	0	0	1	0	3	3	4	1	0	1	4	92	45
6.6.1	mac	0	2023-10-16	16:54:32	1	1	1	experiment	2	2	4	feedback	1000	45	10	6	11	75.5	32	183	46	18		12	2	erasure	2	21	196.0560000000000115961	2723	196		163	114.0999999999999943157	0.3704275114858587292	163	150	135	0	3	0	1	1	0	3	3	4	1	0	0	3	92	45
6.6.1	mac	0	2023-10-16	16:54:32	1	1	1	experiment	2	2	4	ITI	260	45	10	6	11	75.5	32	183	46	18		13	3	erasure	3	21			196		163					135	0	3	0	1	1	0	3	3	4	1	0	0	3	92	45
6.6.1	mac	0	2023-10-16	16:54:32	1	1	1	experiment	2	2	4	preFreeze	500	45	10	6	11	75.5	32	183	46	18		13	3	erasure	3	21			196		163					135	0	3	0	1	1	0	3	3	4	1	0	0	3	92	45
6.6.1	mac	0	2023-10-16	16:54:32	1	1	1	experiment	2	2	4	clock	384	45	10	6	11	75.5	32	183	46	18		13	3	erasure	3	62			196		163					135	0	3	0	1	1	0	3	3	4	1	0	0	3	92	45
6.6.1	mac	0	2023-10-16	16:54:32	1	1	1	experiment	2	2	4	ISI	490	45	10	6	11	75.5	32	183	46	18		13	3	erasure	3	62			196		163					135	0	3	0	1	1	0	3	3	4	1	0	0	3	92	45
6.6.1	mac	0	2023-10-16	16:54:32	1	1	1	experiment	2	2	4	feedback	1000	45	10	6	11	75.5	32	183	46	18		13	3	erasure	3	62	340.8480000000000131877	4734	341		13	9.0999999999999996447	0.3366673431211773537	13	13	135	0	4	0	2	1	0	3	3	4	1	0	0	2	92	45
6.6.1	mac	0	2023-10-16	16:54:32	1	1	1	experiment	2	2	4	ITI	490	45	10	6	11	75.5	32	183	46	18		14	4	erasure	4	62			341		13					135	0	4	0	2	1	0	3	3	4	1	0	0	2	92	45
6.6.1	mac	0	2023-10-16	16:54:32	1	1	1	experiment	2	2	4	preFreeze	590	45	10	6	11	75.5	32	183	46	18		14	4	erasure	4	62			341		13					135	0	4	0	2	1	0	3	3	4	1	0	0	2	92	45
6.6.1	mac	0	2023-10-16	16:54:32	1	1	1	experiment	2	2	4	clock	337	45	10	6	11	75.5	32	183	46	18		14	4	erasure	4	26			341		13					135	0	4	0	2	1	0	3	3	4	1	0	0	2	92	45
6.6.1	mac	0	2023-10-16	16:54:32	1	1	1	experiment	2	2	4	ISI	470	45	10	6	11	75.5	32	183	46	18		14	4	erasure	4	26			341		13					135	0	4	0	2	1	0	3	3	4	1	0	0	2	92	45
6.6.1	mac	0	2023-10-16	16:54:32	1	1	1	experiment	2	2	4	feedback	1000	45	10	6	11	75.5	32	183	46	18		14	4	erasure	4	26	207.8640000000000043201	2887	208		155	108.5	0.6595314549420800976	155	150	135	0	5	0	3	1	0	3	3	4	1	0	0	1	92	45
6.6.1	mac	0	2023-10-16	16:54:32	1	1	1	experiment	2	2	4	ITI	340	45	10	6	11	75.5	32	183	46	18		15	5	erasure	5	26			208		155					135	0	5	0	3	1	0	3	3	4	1	0	0	1	92	45
6.6.1	mac	0	2023-10-16	16:54:32	1	1	1	experiment	2	2	4	preFreeze	550	45	10	6	11	75.5	32	183	46	18		15	5	erasure	5	26			208		155					135	0	5	0	3	1	0	3	3	4	1	0	0	1	92	45
6.6.1	mac	0	2023-10-16	16:54:32	1	1	1	experiment	2	2	4	clock	371	45	10	6	11	75.5	32	183	46	18		15	5	erasure	5	55			208		155					135	0	5	0	3	1	0	3	3	4	1	0	0	1	92	45
6.6.1	mac	0	2023-10-16	16:54:32	1	1	1	experiment	2	2	4	ISI	410	45	10	6	11	75.5	32	183	46	18		15	5	erasure	5	55			208		155					135	0	5	0	3	1	0	3	3	4	1	0	0	1	92	45
6.6.1	mac	0	2023-10-16	16:54:32	1	1	1	experiment	2	2	4	feedback	1000	45	10	6	11	75.5	32	183	46	18		15	5	erasure	5	55	314.7119999999999890861	4371	315		9	6.2999999999999998224	0.6630267826055704639	9	10	135	0	6	0	4	1	0	3	3	4	1	0	0	0	92	45
6.6.1	mac	0	2023-10-16	16:54:32	1	1	1	experiment	2	2	4	ITI	130	45	10	6	11	75.5	32	183	46	18		16	6	no_erasure	6	55			315		9					135		6	0	4	1	0	3	3	4	0	1	0	1	92	45
6.6.1	mac	0	2023-10-16	16:54:32	1	1	1	experiment	2	2	4	preFreeze	570	45	10	6	11	75.5	32	183	46	18		16	6	no_erasure	6	55			315		9					135		6	0	4	1	0	3	3	4	0	1	0	1	92	45
6.6.1	mac	0	2023-10-16	16:54:32	1	1	1	experiment	2	2	4	clock	462	45	10	6	11	75.5	32	183	46	18		16	6	no_erasure	6	83			315		9					135		6	0	4	1	0	3	3	4	0	1	0	1	92	45
6.6.1	mac	0	2023-10-16	16:54:32	1	1	1	experiment	2	2	4	ISI	280	45	10	6	11	75.5	32	183	46	18		16	6	no_erasure	6	83			315		9					135		6	0	4	1	0	3	3	4	0	1	0	1	92	45
6.6.1	mac	0	2023-10-16	16:54:32	1	1	1	experiment	2	2	4	feedback	1000	45	10	6	11	75.5	32	183	46	18		16	6	no_erasure	6	83	62.0640000000000000568	862	62		11	7.6999999999999992895	0.1352704027982592483	11	11	135		7	0	4	2	0	3	3	4	0	1	0	0	92	45
6.6.1	mac	0	2023-10-16	16:54:32	1	1	1	experiment	2	2	4	ITI	230	45	10	6	11	75.5	32	183	46	18		17	7	no_erasure	7	83			62		11					135		7	0	4	2		3	3	4	1	0	1	-2	92	45
6.6.1	mac	0	2023-10-16	16:54:32	1	1	1	experiment	2	2	4	preFreeze	580	45	10	6	11	75.5	32	183	46	18		17	7	no_erasure	7	83			62		11					135		7	0	4	2		3	3	4	1	0	1	-2	92	45
6.6.1	mac	0	2023-10-16	16:54:32	1	1	1	experiment	2	2	4	clock	397	45	10	6	11	75.5	32	183	46	18		17	7	no_erasure	7	20			62		11					135		7	0	4	2		3	3	4	1	0	1	-2	92	45
6.6.1	mac	0	2023-10-16	16:54:32	1	1	1	experiment	2	2	4	ISI	440	45	10	6	11	75.5	32	183	46	18		17	7	no_erasure	7	20			62		11					135		7	0	4	2		3	3	4	1	0	1	-2	92	45
6.6.1	mac	0	2023-10-16	16:54:32	1	1	1	experiment	2	2	4	feedback	1000	45	10	6	11	75.5	32	183	46	18		17	7	no_erasure	7	20	190.5840000000000031832	2647	191		161	112.6999999999999886313	0.8439510860117038771	10	10	135		8	0	4	3		3	3	4	1	0	0	-3	92	45
6.6.1	mac	0	2023-10-16	16:54:32	1	1	1	experiment	2	2	4	ITI	380	45	10	6	11	75.5	32	183	46	18		18	8	attention	8	20			191		161					182	0	8	0	4	3	0	3	3	4	1	0	1	3	92	45
6.6.1	mac	0	2023-10-16	16:54:32	1	1	1	experiment	2	2	4	preFreeze	540	45	10	6	11	75.5	32	183	46	18		18	8	attention	8	20			191		161					182	0	8	0	4	3	0	3	3	4	1	0	1	3	92	45
6.6.1	mac	0	2023-10-16	16:54:32	1	1	1	experiment	2	2	4	clock	357	45	10	6	11	75.5	32	183	46	18		18	8	attention	8	5			191		161					182	0	8	0	4	3	0	3	3	4	1	0	1	3	92	45
6.6.1	mac	0	2023-10-16	16:54:32	1	1	1	experiment	2	2	4	ISI	220	45	10	6	11	75.5	32	183	46	18		18	8	attention	8	5			191		161					182	0	8	0	4	3	0	3	3	4	1	0	1	3	92	45
6.6.1	mac	0	2023-10-16	16:54:32	1	1	1	experiment	2	2	4	feedback	1000	45	10	6	11	75.5	32	183	46	18		18	8	attention	8	5	133.7040000000000077307	1857	134		67	46.8999999999999985789	0.4428144047136451933	67	67	182	0	9	1	4	3	0	3	3	4	1	0	0	2	92	45
6.6.1	mac	0	2023-10-16	16:54:32	1	1	1	experiment	2	2	4	ITI	370	45	10	6	11	75.5	32	183	46	18		19	9	attention	9	5			134		67					182	0	9	1	4	3	0	3	3	4	1	0	0	2	92	45
6.6.1	mac	0	2023-10-16	16:54:32	1	1	1	experiment	2	2	4	preFreeze	630	45	10	6	11	75.5	32	183	46	18		19	9	attention	9	5			134		67					182	0	9	1	4	3	0	3	3	4	1	0	0	2	92	45
6.6.1	mac	0	2023-10-16	16:54:32	1	1	1	experiment	2	2	4	clock	451	45	10	6	11	75.5	32	183	46	18		19	9	attention	9	69			134		67					182	0	9	1	4	3	0	3	3	4	1	0	0	2	92	45
6.6.1	mac	0	2023-10-16	16:54:32	1	1	1	experiment	2	2	4	ISI	340	45	10	6	11	75.5	32	183	46	18		19	9	attention	9	69			134		67					182	0	9	1	4	3	0	3	3	4	1	0	0	2	92	45
6.6.1	mac	0	2023-10-16	16:54:32	1	1	1	experiment	2	2	4	feedback	1000	45	10	6	11	75.5	32	183	46	18		19	9	attention	9	69	10.8719999999999998863	151	11		42	29.3999999999999985789	0.5455045778177456395	42	42	182	0	10	2	4	3	0	3	3	4	1	0	0	1	92	45
6.6.1	mac	0	2023-10-16	16:54:32	1	1	1	experiment	2	2	4	ITI	210	45	10	6	11	75.5	32	183	46	18		20	10	attention	10	69			11		42					182	0	10	2	4	3	0	3	3	4	1	0	0	1	92	45
6.6.1	mac	0	2023-10-16	16:54:32	1	1	1	experiment	2	2	4	preFreeze	610	45	10	6	11	75.5	32	183	46	18		20	10	attention	10	69			11		42					182	0	10	2	4	3	0	3	3	4	1	0	0	1	92	45
6.6.1	mac	0	2023-10-16	16:54:32	1	1	1	experiment	2	2	4	clock	382	45	10	6	11	75.5	32	183	46	18		20	10	attention	10	47			11		42					182	0	10	2	4	3	0	3	3	4	1	0	0	1	92	45
6.6.1	mac	0	2023-10-16	16:54:32	1	1	1	experiment	2	2	4	ISI	350	45	10	6	11	75.5	32	183	46	18		20	10	attention	10	47			11		42					182	0	10	2	4	3	0	3	3	4	1	0	0	1	92	45
6.6.1	mac	0	2023-10-16	16:54:32	1	1	1	experiment	2	2	4	feedback	1000	45	10	6	11	75.5	32	183	46	18		20	10	attention	10	47	286.7040000000000077307	3982	287		3	2.0999999999999996447	0.3006863587770346458	3	10	182	0	11	3	4	3	0	3	3	4	1	0	0	0	92	45
6.6.1	mac	0	2023-10-16	16:54:32	1	1	1	experiment	3	3	4	ITI	140	45	10	6	11	75.5	32	176	46	18		21	1	no_erasure	1	47			287		3					182		1	0	0	0		3	3	4	0	1	0	1	92	45
6.6.1	mac	0	2023-10-16	16:54:32	1	1	1	experiment	3	3	4	preFreeze	700	45	10	6	11	75.5	32	176	46	18		21	1	no_erasure	1	47			287		3					182		1	0	0	0		3	3	4	0	1	0	1	92	45
6.6.1	mac	0	2023-10-16	16:54:32	1	1	1	experiment	3	3	4	clock	563	45	10	6	11	75.5	32	176	46	18		21	1	no_erasure	1	89			287		3					182		1	0	0	0		3	3	4	0	1	0	1	92	45
6.6.1	mac	0	2023-10-16	16:54:32	1	1	1	experiment	3	3	4	ISI	400	45	10	6	11	75.5	32	176	46	18		21	1	no_erasure	1	89			287		3					182		1	0	0	0		3	3	4	0	1	0	1	92	45
6.6.1	mac	0	2023-10-16	16:54:32	1	1	1	experiment	3	3	4	feedback	1000	45	10	6	11	75.5	32	176	46	18		21	1	no_erasure	1	89	90.9360000000000070486	1263	91		5	3.5	0.0102449900028866222	5	10	182		2	0	0	1		3	3	4	0	1	0	0	92	45
6.6.1	mac	0	2023-10-16	16:54:32	1	1	1	experiment	3	3	4	ITI	170	45	10	6	11	75.5	32	176	46	18		22	2	erasure	2	89			91		5					135	0	2	0	0	1	0	3	3	4	1	0	1	4	92	45
6.6.1	mac	0	2023-10-16	16:54:32	1	1	1	experiment	3	3	4	preFreeze	620	45	10	6	11	75.5	32	176	46	18		22	2	erasure	2	89			91		5					135	0	2	0	0	1	0	3	3	4	1	0	1	4	92	45
6.6.1	mac	0	2023-10-16	16:54:32	1	1	1	experiment	3	3	4	clock	461	45	10	6	11	75.5	32	176	46	18		22	2	erasure	2	50			91		5					135	0	2	0	0	1	0	3	3	4	1	0	1	4	92	45
6.6.1	mac	0	2023-10-16	16:54:32	1	1	1	experiment	3	3	4	ISI	320	45	10	6	11	75.5	32	176	46	18		22	2	erasure	2	50			91		5					135	0	2	0	0	1	0	3	3	4	1	0	1	4	92	45
6.6.1	mac	0	2023-10-16	16:54:32	1	1	1	experiment	3	3	4	feedback	1000	45	10	6	11	75.5	32	176	46	18		22	2	erasure	2	50	303.192000000000007276	4211	303		4	2.7999999999999998224	0.7991188277488385783	10	10	135	0	3	0	1	1	0	3	3	4	1	0	0	3	92	45
6.6.1	mac	0	2023-10-16	16:54:32	1	1	1	experiment	3	3	4	ITI	300	45	10	6	11	75.5	32	176	46	18		23	3	erasure	3	50			303		4					135	0	3	0	1	1	0	3	3	4	1	0	0	3	92	45
6.6.1	mac	0	2023-10-16	16:54:32	1	1	1	experiment	3	3	4	preFreeze	500	45	10	6	11	75.5	32	176	46	18		23	3	erasure	3	50			303		4					135	0	3	0	1	1	0	3	3	4	1	0	0	3	92	45
6.6.1	mac	0	2023-10-16	16:54:32	1	1	1	experiment	3	3	4	clock	407	45	10	6	11	75.5	32	176	46	18		23	3	erasure	3	72			303		4					135	0	3	0	1	1	0	3	3	4	1	0	0	3	92	45
6.6.1	mac	0	2023-10-16	16:54:32	1	1	1	experiment	3	3	4	ISI	450	45	10	6	11	75.5	32	176	46	18		23	3	erasure	3	72			303		4					135	0	3	0	1	1	0	3	3	4	1	0	0	3	92	45
6.6.1	mac	0	2023-10-16	16:54:32	1	1	1	experiment	3	3	4	feedback	1000	45	10	6	11	75.5	32	176	46	18		23	3	erasure	3	72	18.5040000000000013358	257	19		38	26.5999999999999978684	0.9429711077695179799	10	10	135	0	4	0	2	1	0	3	3	4	1	0	0	2	92	45
6.6.1	mac	0	2023-10-16	16:54:32	1	1	1	experiment	3	3	4	ITI	440	45	10	6	11	75.5	32	176	46	18		24	4	erasure	4	72			19		38					135	0	4	0	2	1	0	3	3	4	1	0	0	2	92	45
6.6.1	mac	0	2023-10-16	16:54:32	1	1	1	experiment	3	3	4	preFreeze	650	45	10	6	11	75.5	32	176	46	18		24	4	erasure	4	72			19		38					135	0	4	0	2	1	0	3	3	4	1	0	0	2	92	45
6.6.1	mac	0	2023-10-16	16:54:32	1	1	1	experiment	3	3	4	clock	375	45	10	6	11	75.5	32	176	46	18		24	4	erasure	4	41			19		38					135	0	4	0	2	1	0	3	3	4	1	0	0	2	92	45
6.6.1	mac	0	2023-10-16	16:54:32	1	1	1	experiment	3	3	4	ISI	540	45	10	6	11	75.5	32	176	46	18		24	4	erasure	4	41			19		38					135	0	4	0	2	1	0	3	3	4	1	0	0	2	92	45
6.6.1	mac	0	2023-10-16	16:54:32	1	1	1	experiment	3	3	4	feedback	1000	45	10	6	11	75.5	32	176	46	18		24	4	erasure	4	41	264.6000000000000227374	3675	265		33	23.0999999999999978684	0.5061712538605023237	33	33	135	0	5	0	3	1	0	3	3	4	1	0	0	1	92	45
6.6.1	mac	0	2023-10-16	16:54:32	1	1	1	experiment	3	3	4	ITI	500	45	10	6	11	75.5	32	176	46	18		25	5	erasure	5	41			265		33					135	0	5	0	3	1	0	3	3	4	1	0	0	1	92	45
6.6.1	mac	0	2023-10-16	16:54:32	1	1	1	experiment	3	3	4	preFreeze	550	45	10	6	11	75.5	32	176	46	18		25	5	erasure	5	41			265		33					135	0	5	0	3	1	0	3	3	4	1	0	0	1	92	45
6.6.1	mac	0	2023-10-16	16:54:32	1	1	1	experiment	3	3	4	clock	311	45	10	6	11	75.5	32	176	46	18		25	5	erasure	5	77			265		33					135	0	5	0	3	1	0	3	3	4	1	0	0	1	92	45
6.6.1	mac	0	2023-10-16	16:54:32	1	1	1	experiment	3	3	4	ISI	230	45	10	6	11	75.5	32	176	46	18		25	5	erasure	5	77			265		33					135	0	5	0	3	1	0	3	3	4	1	0	0	1	92	45
6.6.1	mac	0	2023-10-16	16:54:32	1	1	1	experiment	3	3	4	feedback	1000	45	10	6	11	75.5	32	176	46	18		25	5	erasure	5	77	29.5919999999999987494	411	30		40	28	0.7319240473983632533	10	10	135	0	6	0	4	1	0	3	3	4	1	0	0	0	92	45
6.6.1	mac	0	2023-10-16	16:54:32	1	1	1	experiment	3	3	4	ITI	120	45	10	6	11	75.5	32	176	46	18		26	6	no_erasure	6	77			30		40					135		6	0	4	1	0	3	3	4	0	1	0	1	92	45
6.6.1	mac	0	2023-10-16	16:54:32	1	1	1	experiment	3	3	4	preFreeze	520	45	10	6	11	75.5	32	176	46	18		26	6	no_erasure	6	77			30		40					135		6	0	4	1	0	3	3	4	0	1	0	1	92	45
6.6.1	mac	0	2023-10-16	16:54:32	1	1	1	experiment	3	3	4	clock	325	45	10	6	11	75.5	32	176	46	18		26	6	no_erasure	6	95			30		40					135		6	0	4	1	0	3	3	4	0	1	0	1	92	45
6.6.1	mac	0	2023-10-16	16:54:32	1	1	1	experiment	3	3	4	ISI	390	45	10	6	11	75.5	32	176	46	18		26	6	no_erasure	6	95			30		40					135		6	0	4	1	0	3	3	4	0	1	0	1	92	45
6.6.1	mac	0	2023-10-16	16:54:32	1	1	1	experiment	3	3	4	feedback	1000	45	10	6	11	75.5	32	176	46	18		26	6	no_erasure	6	95	95.4000000000000056843	1325	95		20	14	0.772437251119976187	10	10	135		7	0	4	2	0	3	3	4	0	1	0	0	92	45
6.6.1	mac	0	2023-10-16	16:54:32	1	1	1	experiment	3	3	4	ITI	400	45	10	6	11	75.5	32	176	46	18		27	7	attention	7	95			95		20					182	0	7	0	4	2	0	3	3	4	1	0	1	3	92	45
6.6.1	mac	0	2023-10-16	16:54:32	1	1	1	experiment	3	3	4	preFreeze	700	45	10	6	11	75.5	32	176	46	18		27	7	attention	7	95			95		20					182	0	7	0	4	2	0	3	3	4	1	0	1	3	92	45
6.6.1	mac	0	2023-10-16	16:54:32	1	1	1	experiment	3	3	4	clock	438	45	10	6	11	75.5	32	176	46	18		27	7	attention	7	71			95		20					182	0	7	0	4	2	0	3	3	4	1	0	1	3	92	45
6.6.1	mac	0	2023-10-16	16:54:32	1	1	1	experiment	3	3	4	ISI	510	45	10	6	11	75.5	32	176	46	18		27	7	attention	7	71			95		20					182	0	7	0	4	2	0	3	3	4	1	0	1	3	92	45
6.6.1	mac	0	2023-10-16	16:54:32	1	1	1	experiment	3	3	4	feedback	1000	45	10	6	11	75.5	32	176	46	18		27	7	attention	7	71	17.1359999999999992326	238	17		35	24.5	0.4007330519148923909	35	35	182	0	8	1	4	2	0	3	3	4	1	0	0	2	92	45
6.6.1	mac	0	2023-10-16	16:54:32	1	1	1	experiment	3	3	4	ITI	420	45	10	6	11	75.5	32	176	46	18		28	8	attention	8	71			17		35					182	0	8	1	4	2	0	3	3	4	1	0	0	2	92	45
6.6.1	mac	0	2023-10-16	16:54:32	1	1	1	experiment	3	3	4	preFreeze	580	45	10	6	11	75.5	32	176	46	18		28	8	attention	8	71			17		35					182	0	8	1	4	2	0	3	3	4	1	0	0	2	92	45
6.6.1	mac	0	2023-10-16	16:54:32	1	1	1	experiment	3	3	4	clock	967	45	10	6	11	75.5	32	176	46	18		28	8	attention	8	16			17		35					182	0	8	1	4	2	0	3	3	4	1	0	0	2	92	45
