build	computer.platform	computer.touch	date	time	subject	group	sessionid	blockcode	blocknum	block	n_blocks	trialcode	latency	n_trials	block_length	best	trial	run_trial	block_type	list.triallist.currentindex	startPos	stim_center_deg	choose_stim	run_trial_dum	n_attention	n_erasure	n_no_erasure	n_clicks	require_attention	require_no_erasure	require_erasure	timeouts_remain	timeout_block	generate_new_erasure	n_curr_block	list.degrees_att.currentvalue	list.degrees_era.currentvalue
6.6.1	mac	0	2023-10-11	19:41:03	1	1	1	experiment	1	1	3	ITI	280	45	15	6	1	1	no_erasure	1	0			1	0	0	0		4	6	5	1	0	1	6		
6.6.1	mac	0	2023-10-11	19:41:03	1	1	1	experiment	1	1	3	preFreeze	590	45	15	6	1	1	no_erasure	1	0			1	0	0	0		4	6	5	1	0	1	6		
6.6.1	mac	0	2023-10-11	19:41:03	1	1	1	experiment	1	1	3	clock	615	45	15	6	1	1	no_erasure	1	41			1	0	0	0		4	6	5	1	0	1	6		
6.6.1	mac	0	2023-10-11	19:41:03	1	1	1	experiment	1	1	3	ISI	200	45	15	6	1	1	no_erasure	1	41			1	0	0	0		4	6	5	1	0	1	6		
6.6.1	mac	0	2023-10-11	19:41:03	1	1	1	experiment	1	1	3	feedback	1000	45	15	6	1	1	no_erasure	1	41			2	0	0	1		4	6	5	1	0	0	5		
6.6.1	mac	0	2023-10-11	19:41:03	1	1	1	experiment	1	1	3	ITI	100	45	15	6	2	2	no_erasure	2	41			2	0	0	1		4	6	5	1	0	0	5		
6.6.1	mac	0	2023-10-11	19:41:03	1	1	1	experiment	1	1	3	preFreeze	640	45	15	6	2	2	no_erasure	2	41			2	0	0	1		4	6	5	1	0	0	5		
6.6.1	mac	0	2023-10-11	19:41:03	1	1	1	experiment	1	1	3	clock	93	45	15	6	2	2	no_erasure	2	44			2	0	0	1		4	6	5	1	0	0	5		
6.6.1	mac	0	2023-10-11	19:41:03	1	1	1	experiment	1	1	3	ISI	340	45	15	6	2	2	no_erasure	2	44			2	0	0	1		4	6	5	1	0	0	5		
6.6.1	mac	0	2023-10-11	19:41:03	1	1	1	experiment	1	1	3	feedback	1000	45	15	6	2	2	no_erasure	2	44			3	0	0	2		4	6	5	1	0	0	4		
6.6.1	mac	0	2023-10-11	19:41:03	1	1	1	experiment	1	1	3	ITI	470	45	15	6	3	3	no_erasure	3	44			3	0	0	2		4	6	5	1	0	0	4		
6.6.1	mac	0	2023-10-11	19:41:03	1	1	1	experiment	1	1	3	preFreeze	650	45	15	6	3	3	no_erasure	3	44			3	0	0	2		4	6	5	1	0	0	4		
6.6.1	mac	0	2023-10-11	19:41:03	1	1	1	experiment	1	1	3	clock	148	45	15	6	3	3	no_erasure	3	59			3	0	0	2		4	6	5	1	0	0	4		
6.6.1	mac	0	2023-10-11	19:41:03	1	1	1	experiment	1	1	3	ISI	210	45	15	6	3	3	no_erasure	3	59			3	0	0	2		4	6	5	1	0	0	4		
6.6.1	mac	0	2023-10-11	19:41:03	1	1	1	experiment	1	1	3	feedback	1000	45	15	6	3	3	no_erasure	3	59			4	0	0	3		4	6	5	1	0	0	3		
6.6.1	mac	0	2023-10-11	19:41:03	1	1	1	experiment	1	1	3	ITI	170	45	15	6	4	4	no_erasure	4	59			4	0	0	3		4	6	5	1	0	0	3		
6.6.1	mac	0	2023-10-11	19:41:03	1	1	1	experiment	1	1	3	preFreeze	510	45	15	6	4	4	no_erasure	4	59			4	0	0	3		4	6	5	1	0	0	3		
6.6.1	mac	0	2023-10-11	19:41:03	1	1	1	experiment	1	1	3	clock	277	45	15	6	4	4	no_erasure	4	79			4	0	0	3		4	6	5	1	0	0	3		
6.6.1	mac	0	2023-10-11	19:41:03	1	1	1	experiment	1	1	3	ISI	500	45	15	6	4	4	no_erasure	4	79			4	0	0	3		4	6	5	1	0	0	3		
6.6.1	mac	0	2023-10-11	19:41:03	1	1	1	experiment	1	1	3	feedback	1000	45	15	6	4	4	no_erasure	4	79			5	0	0	4		4	6	5	1	0	0	2		
6.6.1	mac	0	2023-10-11	19:41:03	1	1	1	experiment	1	1	3	ITI	120	45	15	6	5	5	no_erasure	5	79			5	0	0	4		4	6	5	1	0	0	2		
6.6.1	mac	0	2023-10-11	19:41:03	1	1	1	experiment	1	1	3	preFreeze	690	45	15	6	5	5	no_erasure	5	79			5	0	0	4		4	6	5	1	0	0	2		
6.6.1	mac	0	2023-10-11	19:41:03	1	1	1	experiment	1	1	3	clock	299	45	15	6	5	5	no_erasure	5	38			5	0	0	4		4	6	5	1	0	0	2		
6.6.1	mac	0	2023-10-11	19:41:03	1	1	1	experiment	1	1	3	ISI	290	45	15	6	5	5	no_erasure	5	38			5	0	0	4		4	6	5	1	0	0	2		
6.6.1	mac	0	2023-10-11	19:41:03	1	1	1	experiment	1	1	3	feedback	1000	45	15	6	5	5	no_erasure	5	38			6	0	0	5		4	6	5	1	0	0	1		
6.6.1	mac	0	2023-10-11	19:41:03	1	1	1	experiment	1	1	3	ITI	390	45	15	6	6	6	no_erasure	6	38			6	0	0	5		4	6	5	1	0	0	1		
6.6.1	mac	0	2023-10-11	19:41:03	1	1	1	experiment	1	1	3	preFreeze	660	45	15	6	6	6	no_erasure	6	38			6	0	0	5		4	6	5	1	0	0	1		
6.6.1	mac	0	2023-10-11	19:41:03	1	1	1	experiment	1	1	3	clock	284	45	15	6	6	6	no_erasure	6	82			6	0	0	5		4	6	5	1	0	0	1		
6.6.1	mac	0	2023-10-11	19:41:03	1	1	1	experiment	1	1	3	ISI	390	45	15	6	6	6	no_erasure	6	82			6	0	0	5		4	6	5	1	0	0	1		
6.6.1	mac	0	2023-10-11	19:41:03	1	1	1	experiment	1	1	3	feedback	1000	45	15	6	6	6	no_erasure	6	82			7	0	0	6		4	6	5	1	0	0	0		
6.6.1	mac	0	2023-10-11	19:41:03	1	1	1	experiment	1	1	3	ITI	150	45	15	6	7	7	erasure	7	82	0	0	7	0	0	6	0	4	6	5	1	0	1	5		
6.6.1	mac	0	2023-10-11	19:41:03	1	1	1	experiment	1	1	3	preFreeze	560	45	15	6	7	7	erasure	7	82	0	0	7	0	0	6	0	4	6	5	1	0	1	5		
6.6.1	mac	0	2023-10-11	19:41:03	1	1	1	experiment	1	1	3	clock	482	45	15	6	7	7	erasure	7	48	0	0	7	0	0	6	0	4	6	5	1	0	1	5		
6.6.1	mac	0	2023-10-11	19:41:03	1	1	1	experiment	1	1	3	ISI	430	45	15	6	7	7	erasure	7	48	0	0	7	0	0	6	0	4	6	5	1	0	1	5		
6.6.1	mac	0	2023-10-11	19:41:03	1	1	1	experiment	1	1	3	feedback	1000	45	15	6	7	7	erasure	7	48	0	0	8	0	1	6	0	4	6	5	1	0	0	4		
6.6.1	mac	0	2023-10-11	19:41:03	1	1	1	experiment	1	1	3	ITI	270	45	15	6	8	8	erasure	8	48	0	0	8	0	1	6	0	4	6	5	1	0	0	4		
6.6.1	mac	0	2023-10-11	19:41:03	1	1	1	experiment	1	1	3	preFreeze	570	45	15	6	8	8	erasure	8	48	0	0	8	0	1	6	0	4	6	5	1	0	0	4		
6.6.1	mac	0	2023-10-11	19:41:03	1	1	1	experiment	1	1	3	clock	307	45	15	6	8	8	erasure	8	88	0	0	8	0	1	6	0	4	6	5	1	0	0	4		
6.6.1	mac	0	2023-10-11	19:41:03	1	1	1	experiment	1	1	3	ISI	450	45	15	6	8	8	erasure	8	88	0	0	8	0	1	6	0	4	6	5	1	0	0	4		
6.6.1	mac	0	2023-10-11	19:41:03	1	1	1	experiment	1	1	3	feedback	514	45	15	6	8	8	erasure	8	88	0	0	9	0	2	6	0	4	6	5	1	0	0	3		
