build	computer.platform	computer.touch	date	time	subject	group	sessionid	blockcode	blocknum	block	n_blocks	trialcode	latency	n_trials	block_length	best	trial	run_trial	block_type	list.triallist.currentindex	startPos	pos_shifted	rt_shifted	rt_index	list.curr_values.nextvalue	mag	ev	rng	inc	inc_rg	stim_center_deg	choose_stim	run_trial_dum	n_attention	n_erasure	n_no_erasure	n_clicks	require_attention	require_no_erasure	require_erasure	timeouts_remain	timeout_block	generate_new_erasure	n_curr_block	list.degrees_att.currentvalue	list.degrees_era.currentvalue
6.6.1	mac	0	2023-10-12	16:18:18	1	1	1	experiment	1	1	3	ITI	460	45	15	6	1	1	attention	1	0					0					90	0	1	0	0	0	0	4	6	5	1	0	1	4	0	
6.6.1	mac	0	2023-10-12	16:18:18	1	1	1	experiment	1	1	3	preFreeze	620	45	15	6	1	1	attention	1	0					0					90	0	1	0	0	0	0	4	6	5	1	0	1	4	0	
6.6.1	mac	0	2023-10-12	16:18:18	1	1	1	experiment	1	1	3	clock	211	45	15	6	1	1	attention	1	31					0					90	0	1	0	0	0	0	4	6	5	1	0	1	4	0	
6.6.1	mac	0	2023-10-12	16:18:18	1	1	1	experiment	1	1	3	ISI	350	45	15	6	1	1	attention	1	31					0					90	0	1	0	0	0	0	4	6	5	1	0	1	4	0	
6.6.1	mac	0	2023-10-12	16:18:18	1	1	1	experiment	1	1	3	feedback	1000	45	15	6	1	1	attention	1	31	216.7920000000000015916	3011	217		73	51.0999999999999943157	0.5022673715144087003	73	73	90	0	2	1	0	0	0	4	6	5	1	0	0	3	0	
6.6.1	mac	0	2023-10-12	16:18:18	1	1	1	experiment	1	1	3	ITI	310	45	15	6	2	2	attention	2	31			217		73					90	0	2	1	0	0	0	4	6	5	1	0	0	3	0	
6.6.1	mac	0	2023-10-12	16:18:18	1	1	1	experiment	1	1	3	preFreeze	500	45	15	6	2	2	attention	2	31			217		73					90	0	2	1	0	0	0	4	6	5	1	0	0	3	0	
6.6.1	mac	0	2023-10-12	16:18:18	1	1	1	experiment	1	1	3	clock	241	45	15	6	2	2	attention	2	31			217		73					90	0	2	1	0	0	0	4	6	5	1	0	0	3	0	
6.6.1	mac	0	2023-10-12	16:18:18	1	1	1	experiment	1	1	3	ISI	510	45	15	6	2	2	attention	2	31			217		73					90	0	2	1	0	0	0	4	6	5	1	0	0	3	0	
6.6.1	mac	0	2023-10-12	16:18:18	1	1	1	experiment	1	1	3	feedback	1000	45	15	6	2	2	attention	2	31	218.951999999999998181	3041	219		70	49	0.2418931008414116346	70	70	90	0	3	2	0	0	0	4	6	5	1	0	0	2	0	
6.6.1	mac	0	2023-10-12	16:18:18	1	1	1	experiment	1	1	3	ITI	440	45	15	6	3	3	attention	3	31			219		70					90	0	3	2	0	0	0	4	6	5	1	0	0	2	0	
6.6.1	mac	0	2023-10-12	16:18:18	1	1	1	experiment	1	1	3	preFreeze	530	45	15	6	3	3	attention	3	31			219		70					90	0	3	2	0	0	0	4	6	5	1	0	0	2	0	
6.6.1	mac	0	2023-10-12	16:18:18	1	1	1	experiment	1	1	3	clock	280	45	15	6	3	3	attention	3	11			219		70					90	0	3	2	0	0	0	4	6	5	1	0	0	2	0	
6.6.1	mac	0	2023-10-12	16:18:18	1	1	1	experiment	1	1	3	ISI	320	45	15	6	3	3	attention	3	11			219		70					90	0	3	2	0	0	0	4	6	5	1	0	0	2	0	
6.6.1	mac	0	2023-10-12	16:18:18	1	1	1	experiment	1	1	3	feedback	1000	45	15	6	3	3	attention	3	11	149.7599999999999909051	2080	150		137	95.8999999999999914735	0.0032753029380169006	137	137	90	0	4	3	0	0	0	4	6	5	1	0	0	1	0	
6.6.1	mac	0	2023-10-12	16:18:18	1	1	1	experiment	1	1	3	ITI	350	45	15	6	4	4	attention	4	11			150		137					90	0	4	3	0	0	0	4	6	5	1	0	0	1	0	
6.6.1	mac	0	2023-10-12	16:18:18	1	1	1	experiment	1	1	3	preFreeze	600	45	15	6	4	4	attention	4	11			150		137					90	0	4	3	0	0	0	4	6	5	1	0	0	1	0	
6.6.1	mac	0	2023-10-12	16:18:18	1	1	1	experiment	1	1	3	clock	321	45	15	6	4	4	attention	4	7			150		137					90	0	4	3	0	0	0	4	6	5	1	0	0	1	0	
6.6.1	mac	0	2023-10-12	16:18:18	1	1	1	experiment	1	1	3	ISI	390	45	15	6	4	4	attention	4	7			150		137					90	0	4	3	0	0	0	4	6	5	1	0	0	1	0	
6.6.1	mac	0	2023-10-12	16:18:18	1	1	1	experiment	1	1	3	feedback	1000	45	15	6	4	4	attention	4	7	138.3120000000000118234	1921	138		86	60.1999999999999957367	0.0580711972569281226	86	86	90	0	5	4	0	0	0	4	6	5	1	0	0	0	0	
6.6.1	mac	0	2023-10-12	16:18:18	1	1	1	experiment	1	1	3	ITI	430	45	15	6	5	5	attention	5	7			138		86					90	0	5	4	0	0	0	4	6	5	1	0	0	0	0	
6.6.1	mac	0	2023-10-12	16:18:18	1	1	1	experiment	1	1	3	preFreeze	570	45	15	6	5	5	attention	5	7			138		86					90	0	5	4	0	0	0	4	6	5	1	0	0	0	0	
6.6.1	mac	0	2023-10-12	16:18:18	1	1	1	experiment	1	1	3	clock	1041	45	15	6	5	5	attention	5	89			138		86					90	0	5	4	0	0	0	4	6	5	1	0	0	0	0	
6.6.1	mac	0	2023-10-12	16:18:18	1	1	1	experiment	1	1	3	ISI	480	45	15	6	5	5	attention	5	89			138		86					90	0	5	4	0	0	0	4	6	5	1	0	0	0	0	
6.6.1	mac	0	2023-10-12	16:18:18	1	1	1	experiment	1	1	3	feedback	1000	45	15	6	5	5	attention	5	89	125.3520000000000038654	1741	125		47	32.8999999999999985789	0.6442136623999601408	47	47	90	0	6	5	0	0	0	4	6	5	1	0	0	-1	0	
6.6.1	mac	0	2023-10-12	16:18:18	1	1	1	experiment	1	1	3	ITI	120	45	15	6	6	6	attention	6	89			125		47					90	0	6	5	0	0	0	4	6	5	1	0	0	-1	0	
6.6.1	mac	0	2023-10-12	16:18:18	1	1	1	experiment	1	1	3	preFreeze	520	45	15	6	6	6	attention	6	89			125		47					90	0	6	5	0	0	0	4	6	5	1	0	0	-1	0	
6.6.1	mac	0	2023-10-12	16:18:18	1	1	1	experiment	1	1	3	clock	1144	45	15	6	6	6	attention	6	62			125		47					90	0	6	5	0	0	0	4	6	5	1	0	0	-1	0	
6.6.1	mac	0	2023-10-12	16:18:18	1	1	1	experiment	1	1	3	ISI	540	45	15	6	6	6	attention	6	62			125		47					90	0	6	5	0	0	0	4	6	5	1	0	0	-1	0	
6.6.1	mac	0	2023-10-12	16:18:18	1	1	1	experiment	1	1	3	feedback	955	45	15	6	6	6	attention	6	62	35.56799999999999784	494	36		35	24.5	0.7682976519615151156	10	10	90	0	7	6	0	0	0	4	6	5	1	0	0	-2	0	
