build	computer.platform	computer.touch	date	time	subject	group	sessionid	blockcode	blocknum	block	n_blocks	trialcode	latency	n_trials	block_length	best	lower_quartile	upper_quartile	list.curr_values_temp.median	erasure_index	erasure_RT	erasure_value	erasure_degrees	trial	run_trial	block_type	list.triallist.currentindex	startPos	pos_shifted	rt_shifted	rt_index	list.curr_values.currentvalue	mag	ev	rng	inc	inc_rg	stim_center_deg	choose_stim	run_trial_dum	n_attention	n_erasure	n_no_erasure	n_clicks	require_attention	require_no_erasure	require_erasure	timeouts_remain	timeout_block	generate_new_erasure	n_curr_block	list.degrees_att.currentvalue	list.degrees_era.currentvalue
6.6.1	mac	0	2023-10-16	17:14:24	1	1	1	experiment	1	1	4	ITI	310	45	10	6	11	75.5	32	151	324	20		1	1	attention	1	0					0					245	0	1	0	0	0	0	3	3	4	1	0	1	3	155	323
6.6.1	mac	0	2023-10-16	17:14:24	1	1	1	experiment	1	1	4	preFreeze	580	45	10	6	11	75.5	32	151	324	20		1	1	attention	1	0					0					245	0	1	0	0	0	0	3	3	4	1	0	1	3	155	323
6.6.1	mac	0	2023-10-16	17:14:24	1	1	1	experiment	1	1	4	clock	1047	45	10	6	11	75.5	32	151	324	20		1	1	attention	1	59					0					245	0	1	0	0	0	0	3	3	4	1	0	1	3	155	323
6.6.1	mac	0	2023-10-16	17:14:24	1	1	1	experiment	1	1	4	ISI	400	45	10	6	11	75.5	32	151	324	20		1	1	attention	1	59					0					245	0	1	0	0	0	0	3	3	4	1	0	1	3	155	323
6.6.1	mac	0	2023-10-16	17:14:24	1	1	1	experiment	1	1	4	feedback	1000	45	10	6	11	75.5	32	151	324	20		1	1	attention	1	59	17.78399999999999892	247	18		40	28	0.2260875260052475078	40	40	245	0	2	1	0	0	0	3	3	4	1	0	0	2	155	323
6.6.1	mac	0	2023-10-16	17:14:24	1	1	1	experiment	1	1	4	ITI	370	45	10	6	11	75.5	32	151	324	20		2	2	attention	2	59			18		40					245	0	2	1	0	0	0	3	3	4	1	0	0	2	155	323
6.6.1	mac	0	2023-10-16	17:14:24	1	1	1	experiment	1	1	4	preFreeze	590	45	10	6	11	75.5	32	151	324	20		2	2	attention	2	59			18		40					245	0	2	1	0	0	0	3	3	4	1	0	0	2	155	323
6.6.1	mac	0	2023-10-16	17:14:24	1	1	1	experiment	1	1	4	clock	325	45	10	6	11	75.5	32	151	324	20		2	2	attention	2	9			18		40					245	0	2	1	0	0	0	3	3	4	1	0	0	2	155	323
6.6.1	mac	0	2023-10-16	17:14:24	1	1	1	experiment	1	1	4	ISI	480	45	10	6	11	75.5	32	151	324	20		2	2	attention	2	9			18		40					245	0	2	1	0	0	0	3	3	4	1	0	0	2	155	323
6.6.1	mac	0	2023-10-16	17:14:24	1	1	1	experiment	1	1	4	feedback	1000	45	10	6	11	75.5	32	151	324	20		2	2	attention	2	9	145.8000000000000113687	2025	146		127	88.8999999999999914735	0.6527393771458276372	127	127	245	0	3	2	0	0	0	3	3	4	1	0	0	1	155	323
6.6.1	mac	0	2023-10-16	17:14:24	1	1	1	experiment	1	1	4	ITI	300	45	10	6	11	75.5	32	151	324	20		3	3	attention	3	9			146		127					245	0	3	2	0	0	0	3	3	4	1	0	0	1	155	323
6.6.1	mac	0	2023-10-16	17:14:24	1	1	1	experiment	1	1	4	preFreeze	510	45	10	6	11	75.5	32	151	324	20		3	3	attention	3	9			146		127					245	0	3	2	0	0	0	3	3	4	1	0	0	1	155	323
6.6.1	mac	0	2023-10-16	17:14:24	1	1	1	experiment	1	1	4	clock	330	45	10	6	11	75.5	32	151	324	20		3	3	attention	3	45			146		127					245	0	3	2	0	0	0	3	3	4	1	0	0	1	155	323
6.6.1	mac	0	2023-10-16	17:14:24	1	1	1	experiment	1	1	4	ISI	600	45	10	6	11	75.5	32	151	324	20		3	3	attention	3	45			146		127					245	0	3	2	0	0	0	3	3	4	1	0	0	1	155	323
6.6.1	mac	0	2023-10-16	17:14:24	1	1	1	experiment	1	1	4	feedback	1000	45	10	6	11	75.5	32	151	324	20		3	3	attention	3	45	275.7599999999999909051	3830	276		4	2.7999999999999998224	0.5853921292781345542	4	10	245	0	4	3	0	0	0	3	3	4	1	0	0	0	155	323
6.6.1	mac	0	2023-10-16	17:14:24	1	1	1	experiment	1	1	4	ITI	470	45	10	6	11	75.5	32	151	324	20		4	4	no_erasure	4	45			276		4					245		4	3	0	0	0	3	3	4	0	1	0	1	155	323
6.6.1	mac	0	2023-10-16	17:14:24	1	1	1	experiment	1	1	4	preFreeze	600	45	10	6	11	75.5	32	151	324	20		4	4	no_erasure	4	45			276		4					245		4	3	0	0	0	3	3	4	0	1	0	1	155	323
6.6.1	mac	0	2023-10-16	17:14:24	1	1	1	experiment	1	1	4	clock	379	45	10	6	11	75.5	32	151	324	20		4	4	no_erasure	4	5			276		4					245		4	3	0	0	0	3	3	4	0	1	0	1	155	323
6.6.1	mac	0	2023-10-16	17:14:24	1	1	1	experiment	1	1	4	ISI	220	45	10	6	11	75.5	32	151	324	20		4	4	no_erasure	4	5			276		4					245		4	3	0	0	0	3	3	4	0	1	0	1	155	323
6.6.1	mac	0	2023-10-16	17:14:24	1	1	1	experiment	1	1	4	feedback	1000	45	10	6	11	75.5	32	151	324	20		4	4	no_erasure	4	5	135.2880000000000109139	1879	135		69	48.2999999999999971578	0.1848465956712250224	69	69	245		5	3	0	1	0	3	3	4	0	1	0	0	155	323
6.6.1	mac	0	2023-10-16	17:14:24	1	1	1	experiment	1	1	4	ITI	160	45	10	6	11	75.5	32	151	324	20		5	5	no_erasure	5	5			135		69					245		5	3	0	1		3	3	4	1	0	1	2	155	323
6.6.1	mac	0	2023-10-16	17:14:24	1	1	1	experiment	1	1	4	preFreeze	550	45	10	6	11	75.5	32	151	324	20		5	5	no_erasure	5	5			135		69					245		5	3	0	1		3	3	4	1	0	1	2	155	323
6.6.1	mac	0	2023-10-16	17:14:24	1	1	1	experiment	1	1	4	clock	383	45	10	6	11	75.5	32	151	324	20		5	5	no_erasure	5	16			135		69					245		5	3	0	1		3	3	4	1	0	1	2	155	323
6.6.1	mac	0	2023-10-16	17:14:24	1	1	1	experiment	1	1	4	ISI	420	45	10	6	11	75.5	32	151	324	20		5	5	no_erasure	5	16			135		69					245		5	3	0	1		3	3	4	1	0	1	2	155	323
6.6.1	mac	0	2023-10-16	17:14:24	1	1	1	experiment	1	1	4	feedback	1000	45	10	6	11	75.5	32	151	324	20		5	5	no_erasure	5	16	175.1759999999999877218	2433	175		160	112	0.088410559130928143	160	150	245		6	3	0	2		3	3	4	1	0	0	1	155	323
6.6.1	mac	0	2023-10-16	17:14:24	1	1	1	experiment	1	1	4	ITI	100	45	10	6	11	75.5	32	151	324	20		6	6	no_erasure	6	16			175		160					245		6	3	0	2		3	3	4	1	0	0	1	155	323
6.6.1	mac	0	2023-10-16	17:14:24	1	1	1	experiment	1	1	4	preFreeze	560	45	10	6	11	75.5	32	151	324	20		6	6	no_erasure	6	16			175		160					245		6	3	0	2		3	3	4	1	0	0	1	155	323
6.6.1	mac	0	2023-10-16	17:14:24	1	1	1	experiment	1	1	4	clock	339	45	10	6	11	75.5	32	151	324	20		6	6	no_erasure	6	31			175		160					245		6	3	0	2		3	3	4	1	0	0	1	155	323
6.6.1	mac	0	2023-10-16	17:14:24	1	1	1	experiment	1	1	4	ISI	490	45	10	6	11	75.5	32	151	324	20		6	6	no_erasure	6	31			175		160					245		6	3	0	2		3	3	4	1	0	0	1	155	323
6.6.1	mac	0	2023-10-16	17:14:24	1	1	1	experiment	1	1	4	feedback	1000	45	10	6	11	75.5	32	151	324	20		6	6	no_erasure	6	31	226.0080000000000097771	3139	226		102	71.3999999999999914735	0.1212724116913211497	102	102	245		7	3	0	3		3	3	4	1	0	0	0	155	323
6.6.1	mac	0	2023-10-16	17:14:24	1	1	1	experiment	1	1	4	ITI	350	45	10	6	11	75.5	32	151	324	20		7	7	erasure	7	31			226		102					53	0	7	3	0	3	0	3	3	4	1	0	1	4	155	323
6.6.1	mac	0	2023-10-16	17:14:24	1	1	1	experiment	1	1	4	preFreeze	540	45	10	6	11	75.5	32	151	324	20		7	7	erasure	7	31			226		102					53	0	7	3	0	3	0	3	3	4	1	0	1	4	155	323
6.6.1	mac	0	2023-10-16	17:14:24	1	1	1	experiment	1	1	4	clock	361	45	10	6	11	75.5	32	151	324	20		7	7	erasure	7	66			226		102					53	0	7	3	0	3	0	3	3	4	1	0	1	4	155	323
6.6.1	mac	0	2023-10-16	17:14:24	1	1	1	experiment	1	1	4	ISI	270	45	10	6	11	75.5	32	151	324	20		7	7	erasure	7	66			226		102					53	0	7	3	0	3	0	3	3	4	1	0	1	4	155	323
6.6.1	mac	0	2023-10-16	17:14:24	1	1	1	experiment	1	1	4	feedback	1000	45	10	6	11	75.5	32	151	324	20		7	7	erasure	7	66	353.5919999999999845386	4911	354		31	21.6999999999999992895	0.9211898981410054921	10	10	53	0	8	3	1	3	0	3	3	4	1	0	0	3	155	323
6.6.1	mac	0	2023-10-16	17:14:24	1	1	1	experiment	1	1	4	ITI	230	45	10	6	11	75.5	32	151	324	20		8	8	erasure	8	66			354		31					53	0	8	3	1	3	0	3	3	4	1	0	0	3	155	323
6.6.1	mac	0	2023-10-16	17:14:24	1	1	1	experiment	1	1	4	preFreeze	570	45	10	6	11	75.5	32	151	324	20		8	8	erasure	8	66			354		31					53	0	8	3	1	3	0	3	3	4	1	0	0	3	155	323
6.6.1	mac	0	2023-10-16	17:14:24	1	1	1	experiment	1	1	4	clock	488	45	10	6	11	75.5	32	151	324	20		8	8	erasure	8	92			354		31					53	0	8	3	1	3	0	3	3	4	1	0	0	3	155	323
6.6.1	mac	0	2023-10-16	17:14:24	1	1	1	experiment	1	1	4	ISI	460	45	10	6	11	75.5	32	151	324	20		8	8	erasure	8	92			354		31					53	0	8	3	1	3	0	3	3	4	1	0	0	3	155	323
6.6.1	mac	0	2023-10-16	17:14:24	1	1	1	experiment	1	1	4	feedback	1000	45	10	6	11	75.5	32	151	324	20		8	8	erasure	8	92	96.3359999999999985221	1338	96		4	2.7999999999999998224	0.3398832504963230638	4	10	53	0	9	3	2	3	0	3	3	4	1	0	0	2	155	323
6.6.1	mac	0	2023-10-16	17:14:24	1	1	1	experiment	1	1	4	ITI	210	45	10	6	11	75.5	32	151	324	20		9	9	erasure	9	92			96		4					53	0	9	3	2	3	0	3	3	4	1	0	0	2	155	323
6.6.1	mac	0	2023-10-16	17:14:24	1	1	1	experiment	1	1	4	preFreeze	520	45	10	6	11	75.5	32	151	324	20		9	9	erasure	9	92			96		4					53	0	9	3	2	3	0	3	3	4	1	0	0	2	155	323
6.6.1	mac	0	2023-10-16	17:14:24	1	1	1	experiment	1	1	4	clock	419	45	10	6	11	75.5	32	151	324	20		9	9	erasure	9	36			96		4					53	0	9	3	2	3	0	3	3	4	1	0	0	2	155	323
6.6.1	mac	0	2023-10-16	17:14:24	1	1	1	experiment	1	1	4	ISI	200	45	10	6	11	75.5	32	151	324	20		9	9	erasure	9	36			96		4					53	0	9	3	2	3	0	3	3	4	1	0	0	2	155	323
6.6.1	mac	0	2023-10-16	17:14:24	1	1	1	experiment	1	1	4	feedback	1000	45	10	6	11	75.5	32	151	324	20		9	9	erasure	9	36	249.7680000000000006821	3469	250		60	42	0.6609416852381410079	60	60	53	0	10	3	3	3	0	3	3	4	1	0	0	1	155	323
6.6.1	mac	0	2023-10-16	17:14:24	1	1	1	experiment	1	1	4	ITI	250	45	10	6	11	75.5	32	151	324	20		10	10	erasure	10	36			250		60					53	0	10	3	3	3	0	3	3	4	1	0	0	1	155	323
6.6.1	mac	0	2023-10-16	17:14:24	1	1	1	experiment	1	1	4	preFreeze	630	45	10	6	11	75.5	32	151	324	20		10	10	erasure	10	36			250		60					53	0	10	3	3	3	0	3	3	4	1	0	0	1	155	323
6.6.1	mac	0	2023-10-16	17:14:24	1	1	1	experiment	1	1	4	clock	628	45	10	6	11	75.5	32	151	324	20		10	10	erasure	10	32			250		60					53	0	10	3	3	3	0	3	3	4	1	0	0	1	155	323
6.6.1	mac	0	2023-10-16	17:14:24	1	1	1	experiment	1	1	4	ISI	500	45	10	6	11	75.5	32	151	324	20		10	10	erasure	10	32			250		60					53	0	10	3	3	3	0	3	3	4	1	0	0	1	155	323
6.6.1	mac	0	2023-10-16	17:14:24	1	1	1	experiment	1	1	4	feedback	1000	45	10	6	11	75.5	32	151	324	20		10	10	erasure	10	32	250.4159999999999968168	3478	250		81	56.6999999999999957367	0.1657753154090082504	81	81	53	0	11	3	4	3	0	3	3	4	1	0	0	0	155	323
6.6.1	mac	0	2023-10-16	17:14:24	1	1	1	experiment	2	2	4	ITI	120	45	10	6	11	75.5	32	336	324	20		11	1	no_erasure	1	32			250		81					53		1	0	0	0		3	3	4	0	1	0	1	155	323
6.6.1	mac	0	2023-10-16	17:14:24	1	1	1	experiment	2	2	4	preFreeze	660	45	10	6	11	75.5	32	336	324	20		11	1	no_erasure	1	32			250		81					53		1	0	0	0		3	3	4	0	1	0	1	155	323
6.6.1	mac	0	2023-10-16	17:14:24	1	1	1	experiment	2	2	4	clock	580	45	10	6	11	75.5	32	336	324	20		11	1	no_erasure	1	34			250		81					53		1	0	0	0		3	3	4	0	1	0	1	155	323
6.6.1	mac	0	2023-10-16	17:14:24	1	1	1	experiment	2	2	4	ISI	290	45	10	6	11	75.5	32	336	324	20		11	1	no_erasure	1	34			250		81					53		1	0	0	0		3	3	4	0	1	0	1	155	323
6.6.1	mac	0	2023-10-16	17:14:24	1	1	1	experiment	2	2	4	feedback	1000	45	10	6	11	75.5	32	336	324	20		11	1	no_erasure	1	34	254.1599999999999965894	3530	254		68	47.5999999999999943157	0.1453261124308514729	68	68	53		2	0	0	1		3	3	4	0	1	0	0	155	323
6.6.1	mac	0	2023-10-16	17:14:24	1	1	1	experiment	2	2	4	ITI	450	45	10	6	11	75.5	32	336	324	20		12	2	erasure	2	34			254		68					53	0	2	0	0	1	0	3	3	4	1	0	1	4	155	323
6.6.1	mac	0	2023-10-16	17:14:24	1	1	1	experiment	2	2	4	preFreeze	680	45	10	6	11	75.5	32	336	324	20		12	2	erasure	2	34			254		68					53	0	2	0	0	1	0	3	3	4	1	0	1	4	155	323
6.6.1	mac	0	2023-10-16	17:14:24	1	1	1	experiment	2	2	4	clock	780	45	10	6	11	75.5	32	336	324	20		12	2	erasure	2	48			254		68					53	0	2	0	0	1	0	3	3	4	1	0	1	4	155	323
6.6.1	mac	0	2023-10-16	17:14:24	1	1	1	experiment	2	2	4	ISI	510	45	10	6	11	75.5	32	336	324	20		12	2	erasure	2	48			254		68					53	0	2	0	0	1	0	3	3	4	1	0	1	4	155	323
6.6.1	mac	0	2023-10-16	17:14:24	1	1	1	experiment	2	2	4	feedback	1000	45	10	6	11	75.5	32	336	324	20		12	2	erasure	2	48	318.9599999999999795364	4430	319		6	4.1999999999999992895	0.4697776079340320043	6	10	53	0	3	0	1	1	0	3	3	4	1	0	0	3	155	323
6.6.1	mac	0	2023-10-16	17:14:24	1	1	1	experiment	2	2	4	ITI	330	45	10	6	11	75.5	32	336	324	20		13	3	erasure	3	48			319		6					53	0	3	0	1	1	0	3	3	4	1	0	0	3	155	323
6.6.1	mac	0	2023-10-16	17:14:24	1	1	1	experiment	2	2	4	preFreeze	650	45	10	6	11	75.5	32	336	324	20		13	3	erasure	3	48			319		6					53	0	3	0	1	1	0	3	3	4	1	0	0	3	155	323
6.6.1	mac	0	2023-10-16	17:14:24	1	1	1	experiment	2	2	4	clock	397	45	10	6	11	75.5	32	336	324	20		13	3	erasure	3	12			319		6					53	0	3	0	1	1	0	3	3	4	1	0	0	3	155	323
6.6.1	mac	0	2023-10-16	17:14:24	1	1	1	experiment	2	2	4	ISI	340	45	10	6	11	75.5	32	336	324	20		13	3	erasure	3	12			319		6					53	0	3	0	1	1	0	3	3	4	1	0	0	3	155	323
6.6.1	mac	0	2023-10-16	17:14:24	1	1	1	experiment	2	2	4	feedback	1000	45	10	6	11	75.5	32	336	324	20		13	3	erasure	3	12	161.7839999999999918145	2247	162		91	63.6999999999999957367	0.8608836659372047784	10	10	53	0	4	0	2	1	0	3	3	4	1	0	0	2	155	323
6.6.1	mac	0	2023-10-16	17:14:24	1	1	1	experiment	2	2	4	ITI	360	45	10	6	11	75.5	32	336	324	20		14	4	erasure	4	12			162		91					53	0	4	0	2	1	0	3	3	4	1	0	0	2	155	323
6.6.1	mac	0	2023-10-16	17:14:24	1	1	1	experiment	2	2	4	preFreeze	700	45	10	6	11	75.5	32	336	324	20		14	4	erasure	4	12			162		91					53	0	4	0	2	1	0	3	3	4	1	0	0	2	155	323
6.6.1	mac	0	2023-10-16	17:14:24	1	1	1	experiment	2	2	4	clock	360	45	10	6	11	75.5	32	336	324	20		14	4	erasure	4	90			162		91					53	0	4	0	2	1	0	3	3	4	1	0	0	2	155	323
6.6.1	mac	0	2023-10-16	17:14:24	1	1	1	experiment	2	2	4	ISI	580	45	10	6	11	75.5	32	336	324	20		14	4	erasure	4	90			162		91					53	0	4	0	2	1	0	3	3	4	1	0	0	2	155	323
6.6.1	mac	0	2023-10-16	17:14:24	1	1	1	experiment	2	2	4	feedback	1000	45	10	6	11	75.5	32	336	324	20		14	4	erasure	4	90	79.9200000000000017053	1110	80		11	7.6999999999999992895	0.2212613409434588119	11	11	53	0	5	0	3	1	0	3	3	4	1	0	0	1	155	323
6.6.1	mac	0	2023-10-16	17:14:24	1	1	1	experiment	2	2	4	ITI	220	45	10	6	11	75.5	32	336	324	20		15	5	erasure	5	90			80		11					53	0	5	0	3	1	0	3	3	4	1	0	0	1	155	323
6.6.1	mac	0	2023-10-16	17:14:24	1	1	1	experiment	2	2	4	preFreeze	500	45	10	6	11	75.5	32	336	324	20		15	5	erasure	5	90			80		11					53	0	5	0	3	1	0	3	3	4	1	0	0	1	155	323
6.6.1	mac	0	2023-10-16	17:14:24	1	1	1	experiment	2	2	4	clock	528	45	10	6	11	75.5	32	336	324	20		15	5	erasure	5	33			80		11					53	0	5	0	3	1	0	3	3	4	1	0	0	1	155	323
6.6.1	mac	0	2023-10-16	17:14:24	1	1	1	experiment	2	2	4	ISI	470	45	10	6	11	75.5	32	336	324	20		15	5	erasure	5	33			80		11					53	0	5	0	3	1	0	3	3	4	1	0	0	1	155	323
6.6.1	mac	0	2023-10-16	17:14:24	1	1	1	experiment	2	2	4	feedback	1000	45	10	6	11	75.5	32	336	324	20		15	5	erasure	5	33	246.8160000000000025011	3428	247		34	23.7999999999999971578	0.4661342612156025855	34	34	53	0	6	0	4	1	0	3	3	4	1	0	0	0	155	323
6.6.1	mac	0	2023-10-16	17:14:24	1	1	1	experiment	2	2	4	ITI	490	45	10	6	11	75.5	32	336	324	20		16	6	no_erasure	6	33			247		34					53		6	0	4	1	0	3	3	4	0	1	0	1	155	323
6.6.1	mac	0	2023-10-16	17:14:24	1	1	1	experiment	2	2	4	preFreeze	620	45	10	6	11	75.5	32	336	324	20		16	6	no_erasure	6	33			247		34					53		6	0	4	1	0	3	3	4	0	1	0	1	155	323
6.6.1	mac	0	2023-10-16	17:14:24	1	1	1	experiment	2	2	4	clock	310	45	10	6	11	75.5	32	336	324	20		16	6	no_erasure	6	25			247		34					53		6	0	4	1	0	3	3	4	0	1	0	1	155	323
6.6.1	mac	0	2023-10-16	17:14:24	1	1	1	experiment	2	2	4	ISI	250	45	10	6	11	75.5	32	336	324	20		16	6	no_erasure	6	25			247		34					53		6	0	4	1	0	3	3	4	0	1	0	1	155	323
6.6.1	mac	0	2023-10-16	17:14:24	1	1	1	experiment	2	2	4	feedback	1000	45	10	6	11	75.5	32	336	324	20		16	6	no_erasure	6	25	202.3199999999999931788	2810	202		132	92.3999999999999914735	0.1883673335398471371	132	132	53		7	0	4	2	0	3	3	4	0	1	0	0	155	323
6.6.1	mac	0	2023-10-16	17:14:24	1	1	1	experiment	2	2	4	ITI	410	45	10	6	11	75.5	32	336	324	20		17	7	no_erasure	7	25			202		132					53		7	0	4	2		3	3	4	1	0	1	1	155	323
6.6.1	mac	0	2023-10-16	17:14:24	1	1	1	experiment	2	2	4	preFreeze	690	45	10	6	11	75.5	32	336	324	20		17	7	no_erasure	7	25			202		132					53		7	0	4	2		3	3	4	1	0	1	1	155	323
6.6.1	mac	0	2023-10-16	17:14:24	1	1	1	experiment	2	2	4	clock	434	45	10	6	11	75.5	32	336	324	20		17	7	no_erasure	7	81			202		132					53		7	0	4	2		3	3	4	1	0	1	1	155	323
6.6.1	mac	0	2023-10-16	17:14:24	1	1	1	experiment	2	2	4	ISI	540	45	10	6	11	75.5	32	336	324	20		17	7	no_erasure	7	81			202		132					53		7	0	4	2		3	3	4	1	0	1	1	155	323
6.6.1	mac	0	2023-10-16	17:14:24	1	1	1	experiment	2	2	4	feedback	1000	45	10	6	11	75.5	32	336	324	20		17	7	no_erasure	7	81	52.8479999999999989768	734	53		23	16.0999999999999978684	0.8862678345493664178	10	10	53		8	0	4	3		3	3	4	1	0	0	0	155	323
6.6.1	mac	0	2023-10-16	17:14:24	1	1	1	experiment	2	2	4	ITI	200	45	10	6	11	75.5	32	336	324	20		18	8	attention	8	81			53		23					245	0	8	0	4	3	0	3	3	4	1	0	1	3	155	323
6.6.1	mac	0	2023-10-16	17:14:24	1	1	1	experiment	2	2	4	preFreeze	670	45	10	6	11	75.5	32	336	324	20		18	8	attention	8	81			53		23					245	0	8	0	4	3	0	3	3	4	1	0	1	3	155	323
6.6.1	mac	0	2023-10-16	17:14:24	1	1	1	experiment	2	2	4	clock	629	45	10	6	11	75.5	32	336	324	20		18	8	attention	8	86			53		23					245	0	8	0	4	3	0	3	3	4	1	0	1	3	155	323
6.6.1	mac	0	2023-10-16	17:14:24	1	1	1	experiment	2	2	4	ISI	520	45	10	6	11	75.5	32	336	324	20		18	8	attention	8	86			53		23					245	0	8	0	4	3	0	3	3	4	1	0	1	3	155	323
6.6.1	mac	0	2023-10-16	17:14:24	1	1	1	experiment	2	2	4	feedback	1000	45	10	6	11	75.5	32	336	324	20		18	8	attention	8	86	84.8880000000000052296	1179	85		4	2.7999999999999998224	0.7059338883743467852	10	10	245	0	9	1	4	3	0	3	3	4	1	0	0	2	155	323
6.6.1	mac	0	2023-10-16	17:14:24	1	1	1	experiment	2	2	4	ITI	390	45	10	6	11	75.5	32	336	324	20		19	9	attention	9	86			85		4					245	0	9	1	4	3	0	3	3	4	1	0	0	2	155	323
6.6.1	mac	0	2023-10-16	17:14:24	1	1	1	experiment	2	2	4	preFreeze	610	45	10	6	11	75.5	32	336	324	20		19	9	attention	9	86			85		4					245	0	9	1	4	3	0	3	3	4	1	0	0	2	155	323
6.6.1	mac	0	2023-10-16	17:14:24	1	1	1	experiment	2	2	4	clock	513	45	10	6	11	75.5	32	336	324	20		19	9	attention	9	48			85		4					245	0	9	1	4	3	0	3	3	4	1	0	0	2	155	323
6.6.1	mac	0	2023-10-16	17:14:24	1	1	1	experiment	2	2	4	ISI	330	45	10	6	11	75.5	32	336	324	20		19	9	attention	9	48			85		4					245	0	9	1	4	3	0	3	3	4	1	0	0	2	155	323
6.6.1	mac	0	2023-10-16	17:14:24	1	1	1	experiment	2	2	4	feedback	1000	45	10	6	11	75.5	32	336	324	20		19	9	attention	9	48	299.7359999999999899956	4163	300		4	2.7999999999999998224	0.0481754017640313587	4	10	245	0	10	2	4	3	0	3	3	4	1	0	0	1	155	323
6.6.1	mac	0	2023-10-16	17:14:24	1	1	1	experiment	2	2	4	ITI	170	45	10	6	11	75.5	32	336	324	20		20	10	attention	10	48			300		4					245	0	10	2	4	3	0	3	3	4	1	0	0	1	155	323
6.6.1	mac	0	2023-10-16	17:14:24	1	1	1	experiment	2	2	4	preFreeze	530	45	10	6	11	75.5	32	336	324	20		20	10	attention	10	48			300		4					245	0	10	2	4	3	0	3	3	4	1	0	0	1	155	323
6.6.1	mac	0	2023-10-16	17:14:24	1	1	1	experiment	2	2	4	clock	526	45	10	6	11	75.5	32	336	324	20		20	10	attention	10	78			300		4					245	0	10	2	4	3	0	3	3	4	1	0	0	1	155	323
6.6.1	mac	0	2023-10-16	17:14:24	1	1	1	experiment	2	2	4	ISI	590	45	10	6	11	75.5	32	336	324	20		20	10	attention	10	78			300		4					245	0	10	2	4	3	0	3	3	4	1	0	0	1	155	323
6.6.1	mac	0	2023-10-16	17:14:24	1	1	1	experiment	2	2	4	feedback	1000	45	10	6	11	75.5	32	336	324	20		20	10	attention	10	78	48.6719999999999970441	676	49		23	16.0999999999999978684	0.4702098517376486764	23	23	245	0	11	3	4	3	0	3	3	4	1	0	0	0	155	323
6.6.1	mac	0	2023-10-16	17:14:24	1	1	1	experiment	3	3	4	ITI	180	45	10	6	11	75.5	32	324	324	20		21	1	no_erasure	1	78			49		23					245		1	0	0	0		3	3	4	0	1	0	1	155	323
6.6.1	mac	0	2023-10-16	17:14:24	1	1	1	experiment	3	3	4	preFreeze	640	45	10	6	11	75.5	32	324	324	20		21	1	no_erasure	1	78			49		23					245		1	0	0	0		3	3	4	0	1	0	1	155	323
6.6.1	mac	0	2023-10-16	17:14:24	1	1	1	experiment	3	3	4	clock	411	45	10	6	11	75.5	32	324	324	20		21	1	no_erasure	1	33			49		23					245		1	0	0	0		3	3	4	0	1	0	1	155	323
6.6.1	mac	0	2023-10-16	17:14:24	1	1	1	experiment	3	3	4	ISI	560	45	10	6	11	75.5	32	324	324	20		21	1	no_erasure	1	33			49		23					245		1	0	0	0		3	3	4	0	1	0	1	155	323
6.6.1	mac	0	2023-10-16	17:14:24	1	1	1	experiment	3	3	4	feedback	1000	45	10	6	11	75.5	32	324	324	20		21	1	no_erasure	1	33	238.3919999999999959073	3311	238		54	37.7999999999999971578	0.8923191441903634002	10	10	245		2	0	0	1		3	3	4	0	1	0	0	155	323
6.6.1	mac	0	2023-10-16	17:14:24	1	1	1	experiment	3	3	4	ITI	190	45	10	6	11	75.5	32	324	324	20		22	2	no_erasure	2	33			238		54					245		2	0	0	1		3	3	4	1	0	1	2	155	323
6.6.1	mac	0	2023-10-16	17:14:24	1	1	1	experiment	3	3	4	preFreeze	620	45	10	6	11	75.5	32	324	324	20		22	2	no_erasure	2	33			238		54					245		2	0	0	1		3	3	4	1	0	1	2	155	323
6.6.1	mac	0	2023-10-16	17:14:24	1	1	1	experiment	3	3	4	clock	802	45	10	6	11	75.5	32	324	324	20		22	2	no_erasure	2	72			238		54					245		2	0	0	1		3	3	4	1	0	1	2	155	323
6.6.1	mac	0	2023-10-16	17:14:24	1	1	1	experiment	3	3	4	ISI	310	45	10	6	11	75.5	32	324	324	20		22	2	no_erasure	2	72			238		54					245		2	0	0	1		3	3	4	1	0	1	2	155	323
6.6.1	mac	0	2023-10-16	17:14:24	1	1	1	experiment	3	3	4	feedback	1000	45	10	6	11	75.5	32	324	324	20		22	2	no_erasure	2	72	46.9440000000000026148	652	47		30	21	0.1650895262521434315	30	30	245		3	0	0	2		3	3	4	1	0	0	1	155	323
6.6.1	mac	0	2023-10-16	17:14:24	1	1	1	experiment	3	3	4	ITI	280	45	10	6	11	75.5	32	324	324	20		23	3	no_erasure	3	72			47		30					245		3	0	0	2		3	3	4	1	0	0	1	155	323
6.6.1	mac	0	2023-10-16	17:14:24	1	1	1	experiment	3	3	4	preFreeze	590	45	10	6	11	75.5	32	324	324	20		23	3	no_erasure	3	72			47		30					245		3	0	0	2		3	3	4	1	0	0	1	155	323
6.6.1	mac	0	2023-10-16	17:14:24	1	1	1	experiment	3	3	4	clock	760	45	10	6	11	75.5	32	324	324	20		23	3	no_erasure	3	30			47		30					245		3	0	0	2		3	3	4	1	0	0	1	155	323
6.6.1	mac	0	2023-10-16	17:14:24	1	1	1	experiment	3	3	4	ISI	360	45	10	6	11	75.5	32	324	324	20		23	3	no_erasure	3	30			47		30					245		3	0	0	2		3	3	4	1	0	0	1	155	323
6.6.1	mac	0	2023-10-16	17:14:24	1	1	1	experiment	3	3	4	feedback	1000	45	10	6	11	75.5	32	324	324	20		23	3	no_erasure	3	30	252.7199999999999988631	3510	253		58	40.5999999999999943157	0.3523324163053958569	58	58	245		4	0	0	3		3	3	4	1	0	0	0	155	323
6.6.1	mac	0	2023-10-16	17:14:24	1	1	1	experiment	3	3	4	ITI	130	45	10	6	11	75.5	32	324	324	20		24	4	attention	4	30			253		58					245	0	4	0	0	3	0	3	3	4	1	0	1	3	155	323
6.6.1	mac	0	2023-10-16	17:14:24	1	1	1	experiment	3	3	4	preFreeze	600	45	10	6	11	75.5	32	324	324	20		24	4	attention	4	30			253		58					245	0	4	0	0	3	0	3	3	4	1	0	1	3	155	323
6.6.1	mac	0	2023-10-16	17:14:24	1	1	1	experiment	3	3	4	clock	1047	45	10	6	11	75.5	32	324	324	20		24	4	attention	4	82			253		58					245	0	4	0	0	3	0	3	3	4	1	0	1	3	155	323
6.6.1	mac	0	2023-10-16	17:14:24	1	1	1	experiment	3	3	4	ISI	410	45	10	6	11	75.5	32	324	324	20		24	4	attention	4	82			253		58					245	0	4	0	0	3	0	3	3	4	1	0	1	3	155	323
6.6.1	mac	0	2023-10-16	17:14:24	1	1	1	experiment	3	3	4	feedback	1000	45	10	6	11	75.5	32	324	324	20		24	4	attention	4	82	100.5840000000000031832	1397	101		11	7.6999999999999992895	0.2067569285181250771	11	11	245	0	5	1	0	3	0	3	3	4	1	0	0	2	155	323
6.6.1	mac	0	2023-10-16	17:14:24	1	1	1	experiment	3	3	4	ITI	340	45	10	6	11	75.5	32	324	324	20		25	5	attention	5	82			101		11					245	0	5	1	0	3	0	3	3	4	1	0	0	2	155	323
6.6.1	mac	0	2023-10-16	17:14:24	1	1	1	experiment	3	3	4	preFreeze	690	45	10	6	11	75.5	32	324	324	20		25	5	attention	5	82			101		11					245	0	5	1	0	3	0	3	3	4	1	0	0	2	155	323
6.6.1	mac	0	2023-10-16	17:14:24	1	1	1	experiment	3	3	4	clock	544	45	10	6	11	75.5	32	324	324	20		25	5	attention	5	62			101		11					245	0	5	1	0	3	0	3	3	4	1	0	0	2	155	323
6.6.1	mac	0	2023-10-16	17:14:24	1	1	1	experiment	3	3	4	ISI	320	45	10	6	11	75.5	32	324	324	20		25	5	attention	5	62			101		11					245	0	5	1	0	3	0	3	3	4	1	0	0	2	155	323
6.6.1	mac	0	2023-10-16	17:14:24	1	1	1	experiment	3	3	4	feedback	1000	45	10	6	11	75.5	32	324	324	20		25	5	attention	5	62	352.3679999999999949978	4894	352		20	14	0.3173424111021083127	20	20	245	0	6	2	0	3	0	3	3	4	1	0	0	1	155	323
6.6.1	mac	0	2023-10-16	17:14:24	1	1	1	experiment	3	3	4	ITI	260	45	10	6	11	75.5	32	324	324	20		26	6	attention	6	62			352		20					245	0	6	2	0	3	0	3	3	4	1	0	0	1	155	323
6.6.1	mac	0	2023-10-16	17:14:24	1	1	1	experiment	3	3	4	preFreeze	520	45	10	6	11	75.5	32	324	324	20		26	6	attention	6	62			352		20					245	0	6	2	0	3	0	3	3	4	1	0	0	1	155	323
6.6.1	mac	0	2023-10-16	17:14:24	1	1	1	experiment	3	3	4	clock	706	45	10	6	11	75.5	32	324	324	20		26	6	attention	6	69			352		20					245	0	6	2	0	3	0	3	3	4	1	0	0	1	155	323
6.6.1	mac	0	2023-10-16	17:14:24	1	1	1	experiment	3	3	4	ISI	380	45	10	6	11	75.5	32	324	324	20		26	6	attention	6	69			352		20					245	0	6	2	0	3	0	3	3	4	1	0	0	1	155	323
6.6.1	mac	0	2023-10-16	17:14:24	1	1	1	experiment	3	3	4	feedback	1000	45	10	6	11	75.5	32	324	324	20		26	6	attention	6	69	29.2319999999999993179	406	29		42	29.3999999999999985789	0.4827162740944689889	42	42	245	0	7	3	0	3	0	3	3	4	1	0	0	0	155	323
6.6.1	mac	0	2023-10-16	17:14:24	1	1	1	experiment	3	3	4	ITI	240	45	10	6	11	75.5	32	324	324	20		27	7	no_erasure	7	69			29		42					245		7	3	0	3	0	3	3	4	0	1	0	1	155	323
6.6.1	mac	0	2023-10-16	17:14:24	1	1	1	experiment	3	3	4	preFreeze	630	45	10	6	11	75.5	32	324	324	20		27	7	no_erasure	7	69			29		42					245		7	3	0	3	0	3	3	4	0	1	0	1	155	323
6.6.1	mac	0	2023-10-16	17:14:24	1	1	1	experiment	3	3	4	clock	509	45	10	6	11	75.5	32	324	324	20		27	7	no_erasure	7	7			29		42					245		7	3	0	3	0	3	3	4	0	1	0	1	155	323
6.6.1	mac	0	2023-10-16	17:14:24	1	1	1	experiment	3	3	4	ISI	450	45	10	6	11	75.5	32	324	324	20		27	7	no_erasure	7	7			29		42					245		7	3	0	3	0	3	3	4	0	1	0	1	155	323
6.6.1	mac	0	2023-10-16	17:14:24	1	1	1	experiment	3	3	4	feedback	1000	45	10	6	11	75.5	32	324	324	20		27	7	no_erasure	7	7	151.8480000000000131877	2109	152		43	30.0999999999999978684	0.4164535427504343912	43	43	245		8	3	0	4	0	3	3	4	0	1	0	0	155	323
6.6.1	mac	0	2023-10-16	17:14:24	1	1	1	experiment	3	3	4	ITI	140	45	10	6	11	75.5	32	324	324	20		28	8	erasure	8	7			152		43					53	0	8	3	0	4	0	3	3	4	1	0	1	4	155	323
6.6.1	mac	0	2023-10-16	17:14:24	1	1	1	experiment	3	3	4	preFreeze	530	45	10	6	11	75.5	32	324	324	20		28	8	erasure	8	7			152		43					53	0	8	3	0	4	0	3	3	4	1	0	1	4	155	323
6.6.1	mac	0	2023-10-16	17:14:24	1	1	1	experiment	3	3	4	clock	528	45	10	6	11	75.5	32	324	324	20		28	8	erasure	8	21			152		43					53	0	8	3	0	4	0	3	3	4	1	0	1	4	155	323
6.6.1	mac	0	2023-10-16	17:14:24	1	1	1	experiment	3	3	4	ISI	570	45	10	6	11	75.5	32	324	324	20		28	8	erasure	8	21			152		43					53	0	8	3	0	4	0	3	3	4	1	0	1	4	155	323
6.6.1	mac	0	2023-10-16	17:14:24	1	1	1	experiment	3	3	4	feedback	1000	45	10	6	11	75.5	32	324	324	20		28	8	erasure	8	21	203.6160000000000138698	2828	204		115	80.5	0.6945440952420570691	115	115	53	0	9	3	1	4	0	3	3	4	1	0	0	3	155	323
6.6.1	mac	0	2023-10-16	17:14:24	1	1	1	experiment	3	3	4	ITI	110	45	10	6	11	75.5	32	324	324	20		29	9	erasure	9	21			204		115					53	0	9	3	1	4	0	3	3	4	1	0	0	3	155	323
6.6.1	mac	0	2023-10-16	17:14:24	1	1	1	experiment	3	3	4	preFreeze	165	45	10	6	11	75.5	32	324	324	20		29	9	erasure	9	21			204		115					53	0	9	3	1	4	0	3	3	4	1	0	0	3	155	323
