build	computer.platform	computer.touch	date	time	subject	group	sessionid	blockcode	blocknum	block	n_blocks	trialcode	latency	n_trials	block_length	best	lower_quartile	upper_quartile	list.curr_values_temp.median	erasure_index	erasure_RT	erasure_value	erasure_degrees	trial	run_trial	block_type	list.triallist.currentindex	startPos	pos_shifted	rt_shifted	rt_index	list.curr_values.currentvalue	mag	ev	rng	inc	inc_rg	stim_center_deg	choose_stim	run_trial_dum	n_attention	n_erasure	n_no_erasure	n_clicks	require_attention	require_no_erasure	require_erasure	timeouts_remain	timeout_block	generate_new_erasure	n_curr_block	list.degrees_att.currentvalue	list.degrees_era.currentvalue
6.6.1	mac	0	2023-10-16	14:57:14	1	1	1	experiment	1	1	3	ITI	270	45	15	6	11	75.5	32	141	314	14		1	1	no_erasure	1	0					0							1	0	0	0		4	6	5	1	0	1	6	0	313
6.6.1	mac	0	2023-10-16	14:57:14	1	1	1	experiment	1	1	3	preFreeze	660	45	15	6	11	75.5	32	141	314	14		1	1	no_erasure	1	0					0							1	0	0	0		4	6	5	1	0	1	6	0	313
6.6.1	mac	0	2023-10-16	14:57:14	1	1	1	experiment	1	1	3	clock	845	45	15	6	11	75.5	32	141	314	14		1	1	no_erasure	1	99					0							1	0	0	0		4	6	5	1	0	1	6	0	313
6.6.1	mac	0	2023-10-16	14:57:14	1	1	1	experiment	1	1	3	ISI	590	45	15	6	11	75.5	32	141	314	14		1	1	no_erasure	1	99					0							1	0	0	0		4	6	5	1	0	1	6	0	313
6.6.1	mac	0	2023-10-16	14:57:14	1	1	1	experiment	1	1	3	feedback	1000	45	15	6	11	75.5	32	141	314	14		1	1	no_erasure	1	99	147.2400000000000090949	2045	147		127	88.8999999999999914735	0.426778480044281705	127	127			2	0	0	1		4	6	5	1	0	0	5	0	313
6.6.1	mac	0	2023-10-16	14:57:14	1	1	1	experiment	1	1	3	ITI	400	45	15	6	11	75.5	32	141	314	14		2	2	no_erasure	2	99			147		127							2	0	0	1		4	6	5	1	0	0	5	0	313
6.6.1	mac	0	2023-10-16	14:57:14	1	1	1	experiment	1	1	3	preFreeze	520	45	15	6	11	75.5	32	141	314	14		2	2	no_erasure	2	99			147		127							2	0	0	1		4	6	5	1	0	0	5	0	313
6.6.1	mac	0	2023-10-16	14:57:14	1	1	1	experiment	1	1	3	clock	302	45	15	6	11	75.5	32	141	314	14		2	2	no_erasure	2	79			147		127							2	0	0	1		4	6	5	1	0	0	5	0	313
6.6.1	mac	0	2023-10-16	14:57:14	1	1	1	experiment	1	1	3	ISI	230	45	15	6	11	75.5	32	141	314	14		2	2	no_erasure	2	79			147		127							2	0	0	1		4	6	5	1	0	0	5	0	313
6.6.1	mac	0	2023-10-16	14:57:14	1	1	1	experiment	1	1	3	feedback	1000	45	15	6	11	75.5	32	141	314	14		2	2	no_erasure	2	79	36.1439999999999983515	502	36		28	19.5999999999999978684	0.8593108853929003477	10	10			3	0	0	2		4	6	5	1	0	0	4	0	313
6.6.1	mac	0	2023-10-16	14:57:14	1	1	1	experiment	1	1	3	ITI	380	45	15	6	11	75.5	32	141	314	14		3	3	no_erasure	3	79			36		28							3	0	0	2		4	6	5	1	0	0	4	0	313
6.6.1	mac	0	2023-10-16	14:57:14	1	1	1	experiment	1	1	3	preFreeze	680	45	15	6	11	75.5	32	141	314	14		3	3	no_erasure	3	79			36		28							3	0	0	2		4	6	5	1	0	0	4	0	313
6.6.1	mac	0	2023-10-16	14:57:14	1	1	1	experiment	1	1	3	clock	252	45	15	6	11	75.5	32	141	314	14		3	3	no_erasure	3	44			36		28							3	0	0	2		4	6	5	1	0	0	4	0	313
6.6.1	mac	0	2023-10-16	14:57:14	1	1	1	experiment	1	1	3	ISI	440	45	15	6	11	75.5	32	141	314	14		3	3	no_erasure	3	44			36		28							3	0	0	2		4	6	5	1	0	0	4	0	313
6.6.1	mac	0	2023-10-16	14:57:14	1	1	1	experiment	1	1	3	feedback	1000	45	15	6	11	75.5	32	141	314	14		3	3	no_erasure	3	44	266.5439999999999827196	3702	267		4	2.7999999999999998224	0.0153198852239455757	4	10			4	0	0	3		4	6	5	1	0	0	3	0	313
6.6.1	mac	0	2023-10-16	14:57:14	1	1	1	experiment	1	1	3	ITI	430	45	15	6	11	75.5	32	141	314	14		4	4	no_erasure	4	44			267		4							4	0	0	3		4	6	5	1	0	0	3	0	313
6.6.1	mac	0	2023-10-16	14:57:14	1	1	1	experiment	1	1	3	preFreeze	590	45	15	6	11	75.5	32	141	314	14		4	4	no_erasure	4	44			267		4							4	0	0	3		4	6	5	1	0	0	3	0	313
6.6.1	mac	0	2023-10-16	14:57:14	1	1	1	experiment	1	1	3	clock	227	45	15	6	11	75.5	32	141	314	14		4	4	no_erasure	4	50			267		4							4	0	0	3		4	6	5	1	0	0	3	0	313
6.6.1	mac	0	2023-10-16	14:57:14	1	1	1	experiment	1	1	3	ISI	490	45	15	6	11	75.5	32	141	314	14		4	4	no_erasure	4	50			267		4							4	0	0	3		4	6	5	1	0	0	3	0	313
6.6.1	mac	0	2023-10-16	14:57:14	1	1	1	experiment	1	1	3	feedback	1000	45	15	6	11	75.5	32	141	314	14		4	4	no_erasure	4	50	286.3439999999999940883	3977	286		3	2.0999999999999996447	0.8090957256055194557	10	10			5	0	0	4		4	6	5	1	0	0	2	0	313
6.6.1	mac	0	2023-10-16	14:57:14	1	1	1	experiment	1	1	3	ITI	450	45	15	6	11	75.5	32	141	314	14		5	5	no_erasure	5	50			286		3							5	0	0	4		4	6	5	1	0	0	2	0	313
6.6.1	mac	0	2023-10-16	14:57:14	1	1	1	experiment	1	1	3	preFreeze	610	45	15	6	11	75.5	32	141	314	14		5	5	no_erasure	5	50			286		3							5	0	0	4		4	6	5	1	0	0	2	0	313
6.6.1	mac	0	2023-10-16	14:57:14	1	1	1	experiment	1	1	3	clock	328	45	15	6	11	75.5	32	141	314	14		5	5	no_erasure	5	7			286		3							5	0	0	4		4	6	5	1	0	0	2	0	313
6.6.1	mac	0	2023-10-16	14:57:14	1	1	1	experiment	1	1	3	ISI	220	45	15	6	11	75.5	32	141	314	14		5	5	no_erasure	5	7			286		3							5	0	0	4		4	6	5	1	0	0	2	0	313
6.6.1	mac	0	2023-10-16	14:57:14	1	1	1	experiment	1	1	3	feedback	1000	45	15	6	11	75.5	32	141	314	14		5	5	no_erasure	5	7	138.8160000000000025011	1928	139		79	55.2999999999999971578	0.9722452531504084394	10	10			6	0	0	5		4	6	5	1	0	0	1	0	313
6.6.1	mac	0	2023-10-16	14:57:14	1	1	1	experiment	1	1	3	ITI	120	45	15	6	11	75.5	32	141	314	14		6	6	no_erasure	6	7			139		79							6	0	0	5		4	6	5	1	0	0	1	0	313
6.6.1	mac	0	2023-10-16	14:57:14	1	1	1	experiment	1	1	3	preFreeze	570	45	15	6	11	75.5	32	141	314	14		6	6	no_erasure	6	7			139		79							6	0	0	5		4	6	5	1	0	0	1	0	313
6.6.1	mac	0	2023-10-16	14:57:14	1	1	1	experiment	1	1	3	clock	366	45	15	6	11	75.5	32	141	314	14		6	6	no_erasure	6	84			139		79							6	0	0	5		4	6	5	1	0	0	1	0	313
6.6.1	mac	0	2023-10-16	14:57:14	1	1	1	experiment	1	1	3	ISI	530	45	15	6	11	75.5	32	141	314	14		6	6	no_erasure	6	84			139		79							6	0	0	5		4	6	5	1	0	0	1	0	313
6.6.1	mac	0	2023-10-16	14:57:14	1	1	1	experiment	1	1	3	feedback	1000	45	15	6	11	75.5	32	141	314	14		6	6	no_erasure	6	84	58.7520000000000024443	816	59		15	10.5	0.0910733859266791013	15	15			7	0	0	6		4	6	5	1	0	0	0	0	313
6.6.1	mac	0	2023-10-16	14:57:14	1	1	1	experiment	1	1	3	ITI	320	45	15	6	11	75.5	32	141	314	14		7	7	erasure	7	84			59		15					43	0	7	0	0	6	0	4	6	5	1	0	1	5	0	313
6.6.1	mac	0	2023-10-16	14:57:14	1	1	1	experiment	1	1	3	preFreeze	620	45	15	6	11	75.5	32	141	314	14		7	7	erasure	7	84			59		15					43	0	7	0	0	6	0	4	6	5	1	0	1	5	0	313
6.6.1	mac	0	2023-10-16	14:57:14	1	1	1	experiment	1	1	3	clock	4572	45	15	6	11	75.5	32	141	314	14		7	7	erasure	7	95			59		15					43	0	7	0	0	6	0	4	6	5	1	0	1	5	0	313
6.6.1	mac	0	2023-10-16	14:57:14	1	1	1	experiment	1	1	3	ISI	540	45	15	6	11	75.5	32	141	314	14		7	7	erasure	7	95			59		15					43	0	7	0	0	6	0	4	6	5	1	0	1	5	0	313
6.6.1	mac	0	2023-10-16	14:57:14	1	1	1	experiment	1	1	3	feedback	1000	45	15	6	11	75.5	32	141	314	14		7	7	erasure	7	95	41.1839999999999974989	572	41		38	26.5999999999999978684	0.0494761685955981204	38	38	43	1	8	0	1	6	1	4	6	5	1	0	0	4	0	313
6.6.1	mac	0	2023-10-16	14:57:14	1	1	1	experiment	1	1	3	ITI	180	45	15	6	11	75.5	32	141	314	14		8	8	erasure	8	95			41		38					43	1	8	0	1	6	1	4	6	5	1	0	0	4	0	313
6.6.1	mac	0	2023-10-16	14:57:14	1	1	1	experiment	1	1	3	preFreeze	650	45	15	6	11	75.5	32	141	314	14		8	8	erasure	8	95			41		38					43	1	8	0	1	6	1	4	6	5	1	0	0	4	0	313
6.6.1	mac	0	2023-10-16	14:57:14	1	1	1	experiment	1	1	3	clock	600	45	15	6	11	75.5	32	141	314	14		8	8	erasure	8	24			41		38					43	1	8	0	1	6	1	4	6	5	1	0	0	4	0	313
6.6.1	mac	0	2023-10-16	14:57:14	1	1	1	experiment	1	1	3	ISI	400	45	15	6	11	75.5	32	141	314	14		8	8	erasure	8	24			41		38					43	1	8	0	1	6	1	4	6	5	1	0	0	4	0	313
6.6.1	mac	0	2023-10-16	14:57:14	1	1	1	experiment	1	1	3	feedback	1000	45	15	6	11	75.5	32	141	314	14		8	8	erasure	8	24	219.5999999999999943157	3050	220		102	71.3999999999999914735	0.9965649663928348723	10	10	43	0	9	0	2	6	1	4	6	5	1	0	0	3	0	313
6.6.1	mac	0	2023-10-16	14:57:14	1	1	1	experiment	1	1	3	ITI	500	45	15	6	11	75.5	32	141	314	14		9	9	erasure	9	24			220		102					43	0	9	0	2	6	1	4	6	5	1	0	0	3	0	313
6.6.1	mac	0	2023-10-16	14:57:14	1	1	1	experiment	1	1	3	preFreeze	630	45	15	6	11	75.5	32	141	314	14		9	9	erasure	9	24			220		102					43	0	9	0	2	6	1	4	6	5	1	0	0	3	0	313
6.6.1	mac	0	2023-10-16	14:57:14	1	1	1	experiment	1	1	3	clock	363	45	15	6	11	75.5	32	141	314	14		9	9	erasure	9	91			220		102					43	0	9	0	2	6	1	4	6	5	1	0	0	3	0	313
6.6.1	mac	0	2023-10-16	14:57:14	1	1	1	experiment	1	1	3	ISI	240	45	15	6	11	75.5	32	141	314	14		9	9	erasure	9	91			220		102					43	0	9	0	2	6	1	4	6	5	1	0	0	3	0	313
6.6.1	mac	0	2023-10-16	14:57:14	1	1	1	experiment	1	1	3	feedback	1000	45	15	6	11	75.5	32	141	314	14		9	9	erasure	9	91	83.7360000000000042064	1163	84		8	5.5999999999999996447	0.9864349558452225608	10	10	43	0	10	0	3	6	1	4	6	5	1	0	0	2	0	313
6.6.1	mac	0	2023-10-16	14:57:14	1	1	1	experiment	1	1	3	ITI	210	45	15	6	11	75.5	32	141	314	14		10	10	erasure	10	91			84		8					43	0	10	0	3	6	1	4	6	5	1	0	0	2	0	313
6.6.1	mac	0	2023-10-16	14:57:14	1	1	1	experiment	1	1	3	preFreeze	670	45	15	6	11	75.5	32	141	314	14		10	10	erasure	10	91			84		8					43	0	10	0	3	6	1	4	6	5	1	0	0	2	0	313
6.6.1	mac	0	2023-10-16	14:57:14	1	1	1	experiment	1	1	3	clock	376	45	15	6	11	75.5	32	141	314	14		10	10	erasure	10	73			84		8					43	0	10	0	3	6	1	4	6	5	1	0	0	2	0	313
6.6.1	mac	0	2023-10-16	14:57:14	1	1	1	experiment	1	1	3	ISI	410	45	15	6	11	75.5	32	141	314	14		10	10	erasure	10	73			84		8					43	0	10	0	3	6	1	4	6	5	1	0	0	2	0	313
6.6.1	mac	0	2023-10-16	14:57:14	1	1	1	experiment	1	1	3	feedback	1000	45	15	6	11	75.5	32	141	314	14		10	10	erasure	10	73	19.8719999999999998863	276	20		39	27.2999999999999971578	0.9203634182737123748	10	10	43	0	11	0	4	6	1	4	6	5	1	0	0	1	0	313
6.6.1	mac	0	2023-10-16	14:57:14	1	1	1	experiment	1	1	3	ITI	370	45	15	6	11	75.5	32	141	314	14		11	11	erasure	11	73			20		39					43	0	11	0	4	6	1	4	6	5	1	0	0	1	0	313
6.6.1	mac	0	2023-10-16	14:57:14	1	1	1	experiment	1	1	3	preFreeze	560	45	15	6	11	75.5	32	141	314	14		11	11	erasure	11	73			20		39					43	0	11	0	4	6	1	4	6	5	1	0	0	1	0	313
6.6.1	mac	0	2023-10-16	14:57:14	1	1	1	experiment	1	1	3	clock	335	45	15	6	11	75.5	32	141	314	14		11	11	erasure	11	67			20		39					43	0	11	0	4	6	1	4	6	5	1	0	0	1	0	313
6.6.1	mac	0	2023-10-16	14:57:14	1	1	1	experiment	1	1	3	ISI	290	45	15	6	11	75.5	32	141	314	14		11	11	erasure	11	67			20		39					43	0	11	0	4	6	1	4	6	5	1	0	0	1	0	313
6.6.1	mac	0	2023-10-16	14:57:14	1	1	1	experiment	1	1	3	feedback	1000	45	15	6	11	75.5	32	141	314	14		11	11	erasure	11	67	355.3199999999999931788	4935	355		17	11.8999999999999985789	0.84638878792673089	10	10	43	0	12	0	5	6	1	4	6	5	1	0	0	0	0	313
6.6.1	mac	0	2023-10-16	14:57:14	1	1	1	experiment	1	1	3	ITI	440	45	15	6	11	75.5	32	141	314	14		12	12	erasure	12	67			355		17					43	0	12	0	5	6	1	4	6	5	1	0	0	0	0	313
6.6.1	mac	0	2023-10-16	14:57:14	1	1	1	experiment	1	1	3	preFreeze	600	45	15	6	11	75.5	32	141	314	14		12	12	erasure	12	67			355		17					43	0	12	0	5	6	1	4	6	5	1	0	0	0	0	313
6.6.1	mac	0	2023-10-16	14:57:14	1	1	1	experiment	1	1	3	clock	344	45	15	6	11	75.5	32	141	314	14		12	12	erasure	12	1			355		17					43	0	12	0	5	6	1	4	6	5	1	0	0	0	0	313
6.6.1	mac	0	2023-10-16	14:57:14	1	1	1	experiment	1	1	3	ISI	330	45	15	6	11	75.5	32	141	314	14		12	12	erasure	12	1			355		17					43	0	12	0	5	6	1	4	6	5	1	0	0	0	0	313
6.6.1	mac	0	2023-10-16	14:57:14	1	1	1	experiment	1	1	3	feedback	1000	45	15	6	11	75.5	32	141	314	14		12	12	erasure	12	1	118.3679999999999949978	1644	118		5	3.5	0.191992924127726089	5	10	43	0	13	0	6	6	1	4	6	5	1	0	0	-1	0	313
6.6.1	mac	0	2023-10-16	14:57:14	1	1	1	experiment	1	1	3	ITI	100	45	15	6	11	75.5	32	141	314	14		13	13	erasure	13	1			118		5					43	0	13	0	6	6	1	4	6	5	1	0	0	-1	0	313
6.6.1	mac	0	2023-10-16	14:57:14	1	1	1	experiment	1	1	3	preFreeze	700	45	15	6	11	75.5	32	141	314	14		13	13	erasure	13	1			118		5					43	0	13	0	6	6	1	4	6	5	1	0	0	-1	0	313
6.6.1	mac	0	2023-10-16	14:57:14	1	1	1	experiment	1	1	3	clock	1100	45	15	6	11	75.5	32	141	314	14		13	13	erasure	13	76			118		5					43	0	13	0	6	6	1	4	6	5	1	0	0	-1	0	313
6.6.1	mac	0	2023-10-16	14:57:14	1	1	1	experiment	1	1	3	ISI	520	45	15	6	11	75.5	32	141	314	14		13	13	erasure	13	76			118		5					43	0	13	0	6	6	1	4	6	5	1	0	0	-1	0	313
6.6.1	mac	0	2023-10-16	14:57:14	1	1	1	experiment	1	1	3	feedback	1000	45	15	6	11	75.5	32	141	314	14		13	13	erasure	13	76	82.7999999999999971578	1150	83		16	11.1999999999999992895	0.609815293366512079	16	16	43	0	14	0	7	6	1	4	6	5	1	0	0	-2	0	313
6.6.1	mac	0	2023-10-16	14:57:14	1	1	1	experiment	1	1	3	ITI	230	45	15	6	11	75.5	32	141	314	14		14	14	erasure	14	76			83		16					43	0	14	0	7	6	1	4	6	5	1	0	0	-2	0	313
6.6.1	mac	0	2023-10-16	14:57:14	1	1	1	experiment	1	1	3	preFreeze	530	45	15	6	11	75.5	32	141	314	14		14	14	erasure	14	76			83		16					43	0	14	0	7	6	1	4	6	5	1	0	0	-2	0	313
6.6.1	mac	0	2023-10-16	14:57:14	1	1	1	experiment	1	1	3	clock	330	45	15	6	11	75.5	32	141	314	14		14	14	erasure	14	70			83		16					43	0	14	0	7	6	1	4	6	5	1	0	0	-2	0	313
6.6.1	mac	0	2023-10-16	14:57:14	1	1	1	experiment	1	1	3	ISI	570	45	15	6	11	75.5	32	141	314	14		14	14	erasure	14	70			83		16					43	0	14	0	7	6	1	4	6	5	1	0	0	-2	0	313
6.6.1	mac	0	2023-10-16	14:57:14	1	1	1	experiment	1	1	3	feedback	1000	45	15	6	11	75.5	32	141	314	14		14	14	erasure	14	70	5.7599999999999997868	80	6		33	23.0999999999999978684	0.6301875774818909148	33	33	43	0	15	0	8	6	1	4	6	5	1	0	0	-3	0	313
6.6.1	mac	0	2023-10-16	14:57:14	1	1	1	experiment	1	1	3	ITI	240	45	15	6	11	75.5	32	141	314	14		15	15	erasure	15	70			6		33					43	0	15	0	8	6	1	4	6	5	1	0	0	-3	0	313
6.6.1	mac	0	2023-10-16	14:57:14	1	1	1	experiment	1	1	3	preFreeze	500	45	15	6	11	75.5	32	141	314	14		15	15	erasure	15	70			6		33					43	0	15	0	8	6	1	4	6	5	1	0	0	-3	0	313
6.6.1	mac	0	2023-10-16	14:57:14	1	1	1	experiment	1	1	3	clock	370	45	15	6	11	75.5	32	141	314	14		15	15	erasure	15	8			6		33					43	0	15	0	8	6	1	4	6	5	1	0	0	-3	0	313
6.6.1	mac	0	2023-10-16	14:57:14	1	1	1	experiment	1	1	3	ISI	310	45	15	6	11	75.5	32	141	314	14		15	15	erasure	15	8			6		33					43	0	15	0	8	6	1	4	6	5	1	0	0	-3	0	313
6.6.1	mac	0	2023-10-16	14:57:14	1	1	1	experiment	1	1	3	feedback	1000	45	15	6	11	75.5	32	141	314	14		15	15	erasure	15	8	145.4399999999999977263	2020	145		51	35.6999999999999957367	0.7751030157727895054	10	10	43	0	16	0	9	6	1	4	6	5	1	0	0	-4	0	313
6.6.1	mac	0	2023-10-16	14:57:14	1	1	1	experiment	2	2	3	ITI	470	45	15	6	11	75.5	32	328	314	14		16	1	no_erasure	1	8			145		51					43		1	0	0	0		4	6	5	0	1	0	1	0	313
6.6.1	mac	0	2023-10-16	14:57:14	1	1	1	experiment	2	2	3	preFreeze	640	45	15	6	11	75.5	32	328	314	14		16	1	no_erasure	1	8			145		51					43		1	0	0	0		4	6	5	0	1	0	1	0	313
6.6.1	mac	0	2023-10-16	14:57:14	1	1	1	experiment	2	2	3	clock	1148	45	15	6	11	75.5	32	328	314	14		16	1	no_erasure	1	73			145		51					43		1	0	0	0		4	6	5	0	1	0	1	0	313
6.6.1	mac	0	2023-10-16	14:57:14	1	1	1	experiment	2	2	3	ISI	260	45	15	6	11	75.5	32	328	314	14		16	1	no_erasure	1	73			145		51					43		1	0	0	0		4	6	5	0	1	0	1	0	313
6.6.1	mac	0	2023-10-16	14:57:14	1	1	1	experiment	2	2	3	feedback	1000	45	15	6	11	75.5	32	328	314	14		16	1	no_erasure	1	73	75.4560000000000030695	1048	75		18	12.5999999999999996447	0.4351508031681065591	18	18	43		2	0	0	1		4	6	5	0	1	0	0	0	313
6.6.1	mac	0	2023-10-16	14:57:14	1	1	1	experiment	2	2	3	ITI	460	45	15	6	11	75.5	32	328	314	14		17	2	erasure	2	73			75		18					43	0	2	0	0	1	0	4	6	5	1	0	1	5	0	313
6.6.1	mac	0	2023-10-16	14:57:14	1	1	1	experiment	2	2	3	preFreeze	540	45	15	6	11	75.5	32	328	314	14		17	2	erasure	2	73			75		18					43	0	2	0	0	1	0	4	6	5	1	0	1	5	0	313
6.6.1	mac	0	2023-10-16	14:57:14	1	1	1	experiment	2	2	3	clock	983	45	15	6	11	75.5	32	328	314	14		17	2	erasure	2	49			75		18					43	0	2	0	0	1	0	4	6	5	1	0	1	5	0	313
6.6.1	mac	0	2023-10-16	14:57:14	1	1	1	experiment	2	2	3	ISI	350	45	15	6	11	75.5	32	328	314	14		17	2	erasure	2	49			75		18					43	0	2	0	0	1	0	4	6	5	1	0	1	5	0	313
6.6.1	mac	0	2023-10-16	14:57:14	1	1	1	experiment	2	2	3	feedback	1000	45	15	6	11	75.5	32	328	314	14		17	2	erasure	2	49	337.1759999999999877218	4683	337		21	14.6999999999999992895	0.7598485093935971602	10	10	43	0	3	0	1	1	0	4	6	5	1	0	0	4	0	313
6.6.1	mac	0	2023-10-16	14:57:14	1	1	1	experiment	2	2	3	ITI	420	45	15	6	11	75.5	32	328	314	14		18	3	erasure	3	49			337		21					43	0	3	0	1	1	0	4	6	5	1	0	0	4	0	313
6.6.1	mac	0	2023-10-16	14:57:14	1	1	1	experiment	2	2	3	preFreeze	550	45	15	6	11	75.5	32	328	314	14		18	3	erasure	3	49			337		21					43	0	3	0	1	1	0	4	6	5	1	0	0	4	0	313
6.6.1	mac	0	2023-10-16	14:57:14	1	1	1	experiment	2	2	3	clock	718	45	15	6	11	75.5	32	328	314	14		18	3	erasure	3	1			337		21					43	0	3	0	1	1	0	4	6	5	1	0	0	4	0	313
6.6.1	mac	0	2023-10-16	14:57:14	1	1	1	experiment	2	2	3	ISI	510	45	15	6	11	75.5	32	328	314	14		18	3	erasure	3	1			337		21					43	0	3	0	1	1	0	4	6	5	1	0	0	4	0	313
6.6.1	mac	0	2023-10-16	14:57:14	1	1	1	experiment	2	2	3	feedback	1000	45	15	6	11	75.5	32	328	314	14		18	3	erasure	3	1	145.2959999999999922693	2018	145		104	72.7999999999999971578	0.6734006324953866196	104	104	43	0	4	0	2	1	0	4	6	5	1	0	0	3	0	313
6.6.1	mac	0	2023-10-16	14:57:14	1	1	1	experiment	2	2	3	ITI	140	45	15	6	11	75.5	32	328	314	14		19	4	erasure	4	1			145		104					43	0	4	0	2	1	0	4	6	5	1	0	0	3	0	313
6.6.1	mac	0	2023-10-16	14:57:14	1	1	1	experiment	2	2	3	preFreeze	690	45	15	6	11	75.5	32	328	314	14		19	4	erasure	4	1			145		104					43	0	4	0	2	1	0	4	6	5	1	0	0	3	0	313
6.6.1	mac	0	2023-10-16	14:57:14	1	1	1	experiment	2	2	3	clock	394	45	15	6	11	75.5	32	328	314	14		19	4	erasure	4	45			145		104					43	0	4	0	2	1	0	4	6	5	1	0	0	3	0	313
6.6.1	mac	0	2023-10-16	14:57:14	1	1	1	experiment	2	2	3	ISI	500	45	15	6	11	75.5	32	328	314	14		19	4	erasure	4	45			145		104					43	0	4	0	2	1	0	4	6	5	1	0	0	3	0	313
6.6.1	mac	0	2023-10-16	14:57:14	1	1	1	experiment	2	2	3	feedback	1000	45	15	6	11	75.5	32	328	314	14		19	4	erasure	4	45	280.3679999999999949978	3894	280		5	3.5	0.4683496294236624835	5	10	43	0	5	0	3	1	0	4	6	5	1	0	0	2	0	313
6.6.1	mac	0	2023-10-16	14:57:14	1	1	1	experiment	2	2	3	ITI	170	45	15	6	11	75.5	32	328	314	14		20	5	erasure	5	45			280		5					43	0	5	0	3	1	0	4	6	5	1	0	0	2	0	313
6.6.1	mac	0	2023-10-16	14:57:14	1	1	1	experiment	2	2	3	preFreeze	510	45	15	6	11	75.5	32	328	314	14		20	5	erasure	5	45			280		5					43	0	5	0	3	1	0	4	6	5	1	0	0	2	0	313
6.6.1	mac	0	2023-10-16	14:57:14	1	1	1	experiment	2	2	3	clock	306	45	15	6	11	75.5	32	328	314	14		20	5	erasure	5	28			280		5					43	0	5	0	3	1	0	4	6	5	1	0	0	2	0	313
6.6.1	mac	0	2023-10-16	14:57:14	1	1	1	experiment	2	2	3	ISI	480	45	15	6	11	75.5	32	328	314	14		20	5	erasure	5	28			280		5					43	0	5	0	3	1	0	4	6	5	1	0	0	2	0	313
6.6.1	mac	0	2023-10-16	14:57:14	1	1	1	experiment	2	2	3	feedback	1000	45	15	6	11	75.5	32	328	314	14		20	5	erasure	5	28	212.8319999999999936335	2956	213		113	79.0999999999999943157	0.6277782552940254224	113	113	43	0	6	0	4	1	0	4	6	5	1	0	0	1	0	313
6.6.1	mac	0	2023-10-16	14:57:14	1	1	1	experiment	2	2	3	ITI	490	45	15	6	11	75.5	32	328	314	14		21	6	erasure	6	28			213		113					43	0	6	0	4	1	0	4	6	5	1	0	0	1	0	313
6.6.1	mac	0	2023-10-16	14:57:14	1	1	1	experiment	2	2	3	preFreeze	580	45	15	6	11	75.5	32	328	314	14		21	6	erasure	6	28			213		113					43	0	6	0	4	1	0	4	6	5	1	0	0	1	0	313
6.6.1	mac	0	2023-10-16	14:57:14	1	1	1	experiment	2	2	3	clock	308	45	15	6	11	75.5	32	328	314	14		21	6	erasure	6	70			213		113					43	0	6	0	4	1	0	4	6	5	1	0	0	1	0	313
6.6.1	mac	0	2023-10-16	14:57:14	1	1	1	experiment	2	2	3	ISI	280	45	15	6	11	75.5	32	328	314	14		21	6	erasure	6	70			213		113					43	0	6	0	4	1	0	4	6	5	1	0	0	1	0	313
6.6.1	mac	0	2023-10-16	14:57:14	1	1	1	experiment	2	2	3	feedback	1000	45	15	6	11	75.5	32	328	314	14		21	6	erasure	6	70	4.1760000000000001563	58	4		40	28	0.5739163946299619123	40	40	43	0	7	0	5	1	0	4	6	5	1	0	0	0	0	313
6.6.1	mac	0	2023-10-16	14:57:14	1	1	1	experiment	2	2	3	ITI	190	45	15	6	11	75.5	32	328	314	14		22	7	erasure	7	70			4		40					43	0	7	0	5	1	0	4	6	5	1	0	0	0	0	313
6.6.1	mac	0	2023-10-16	14:57:14	1	1	1	experiment	2	2	3	preFreeze	540	45	15	6	11	75.5	32	328	314	14		22	7	erasure	7	70			4		40					43	0	7	0	5	1	0	4	6	5	1	0	0	0	0	313
6.6.1	mac	0	2023-10-16	14:57:14	1	1	1	experiment	2	2	3	clock	353	45	15	6	11	75.5	32	328	314	14		22	7	erasure	7	99			4		40					43	0	7	0	5	1	0	4	6	5	1	0	0	0	0	313
6.6.1	mac	0	2023-10-16	14:57:14	1	1	1	experiment	2	2	3	ISI	210	45	15	6	11	75.5	32	328	314	14		22	7	erasure	7	99			4		40					43	0	7	0	5	1	0	4	6	5	1	0	0	0	0	313
6.6.1	mac	0	2023-10-16	14:57:14	1	1	1	experiment	2	2	3	feedback	1000	45	15	6	11	75.5	32	328	314	14		22	7	erasure	7	99	111.8160000000000025011	1553	112		28	19.5999999999999978684	0.1137040062140915603	28	28	43	0	8	0	6	1	0	4	6	5	1	0	0	-1	0	313
6.6.1	mac	0	2023-10-16	14:57:14	1	1	1	experiment	2	2	3	ITI	330	45	15	6	11	75.5	32	328	314	14		23	8	erasure	8	99			112		28					43	0	8	0	6	1	0	4	6	5	1	0	0	-1	0	313
6.6.1	mac	0	2023-10-16	14:57:14	1	1	1	experiment	2	2	3	preFreeze	510	45	15	6	11	75.5	32	328	314	14		23	8	erasure	8	99			112		28					43	0	8	0	6	1	0	4	6	5	1	0	0	-1	0	313
6.6.1	mac	0	2023-10-16	14:57:14	1	1	1	experiment	2	2	3	clock	299	45	15	6	11	75.5	32	328	314	14		23	8	erasure	8	55			112		28					43	0	8	0	6	1	0	4	6	5	1	0	0	-1	0	313
6.6.1	mac	0	2023-10-16	14:57:14	1	1	1	experiment	2	2	3	ISI	370	45	15	6	11	75.5	32	328	314	14		23	8	erasure	8	55			112		28					43	0	8	0	6	1	0	4	6	5	1	0	0	-1	0	313
6.6.1	mac	0	2023-10-16	14:57:14	1	1	1	experiment	2	2	3	feedback	1000	45	15	6	11	75.5	32	328	314	14		23	8	erasure	8	55	309.5280000000000200089	4299	310		6	4.1999999999999992895	0.7872066609065995202	10	10	43	0	9	0	7	1	0	4	6	5	1	0	0	-2	0	313
6.6.1	mac	0	2023-10-16	14:57:14	1	1	1	experiment	2	2	3	ITI	260	45	15	6	11	75.5	32	328	314	14		24	9	erasure	9	55			310		6					43	0	9	0	7	1	0	4	6	5	1	0	0	-2	0	313
6.6.1	mac	0	2023-10-16	14:57:14	1	1	1	experiment	2	2	3	preFreeze	520	45	15	6	11	75.5	32	328	314	14		24	9	erasure	9	55			310		6					43	0	9	0	7	1	0	4	6	5	1	0	0	-2	0	313
6.6.1	mac	0	2023-10-16	14:57:14	1	1	1	experiment	2	2	3	clock	1097	45	15	6	11	75.5	32	328	314	14		24	9	erasure	9	100			310		6					43	0	9	0	7	1	0	4	6	5	1	0	0	-2	0	313
6.6.1	mac	0	2023-10-16	14:57:14	1	1	1	experiment	2	2	3	ISI	430	45	15	6	11	75.5	32	328	314	14		24	9	erasure	9	100			310		6					43	0	9	0	7	1	0	4	6	5	1	0	0	-2	0	313
6.6.1	mac	0	2023-10-16	14:57:14	1	1	1	experiment	2	2	3	feedback	1000	45	15	6	11	75.5	32	328	314	14		24	9	erasure	9	100	168.9840000000000088676	2347	169		147	102.8999999999999914735	0.1412116110187982276	147	147	43	0	10	0	8	1	0	4	6	5	1	0	0	-3	0	313
6.6.1	mac	0	2023-10-16	14:57:14	1	1	1	experiment	2	2	3	ITI	350	45	15	6	11	75.5	32	328	314	14		25	10	erasure	10	100			169		147					43	0	10	0	8	1	0	4	6	5	1	0	0	-3	0	313
6.6.1	mac	0	2023-10-16	14:57:14	1	1	1	experiment	2	2	3	preFreeze	680	45	15	6	11	75.5	32	328	314	14		25	10	erasure	10	100			169		147					43	0	10	0	8	1	0	4	6	5	1	0	0	-3	0	313
6.6.1	mac	0	2023-10-16	14:57:14	1	1	1	experiment	2	2	3	clock	312	45	15	6	11	75.5	32	328	314	14		25	10	erasure	10	74			169		147					43	0	10	0	8	1	0	4	6	5	1	0	0	-3	0	313
6.6.1	mac	0	2023-10-16	14:57:14	1	1	1	experiment	2	2	3	ISI	390	45	15	6	11	75.5	32	328	314	14		25	10	erasure	10	74			169		147					43	0	10	0	8	1	0	4	6	5	1	0	0	-3	0	313
6.6.1	mac	0	2023-10-16	14:57:14	1	1	1	experiment	2	2	3	feedback	1000	45	15	6	11	75.5	32	328	314	14		25	10	erasure	10	74	18.8640000000000007674	262	19		42	29.3999999999999985789	0.1735948168611141929	42	42	43	0	11	0	9	1	0	4	6	5	1	0	0	-4	0	313
6.6.1	mac	0	2023-10-16	14:57:14	1	1	1	experiment	2	2	3	ITI	340	45	15	6	11	75.5	32	328	314	14		26	11	erasure	11	74			19		42					43	0	11	0	9	1	0	4	6	5	1	0	0	-4	0	313
6.6.1	mac	0	2023-10-16	14:57:14	1	1	1	experiment	2	2	3	preFreeze	630	45	15	6	11	75.5	32	328	314	14		26	11	erasure	11	74			19		42					43	0	11	0	9	1	0	4	6	5	1	0	0	-4	0	313
6.6.1	mac	0	2023-10-16	14:57:14	1	1	1	experiment	2	2	3	clock	792	45	15	6	11	75.5	32	328	314	14		26	11	erasure	11	61			19		42					43	0	11	0	9	1	0	4	6	5	1	0	0	-4	0	313
6.6.1	mac	0	2023-10-16	14:57:14	1	1	1	experiment	2	2	3	ISI	470	45	15	6	11	75.5	32	328	314	14		26	11	erasure	11	61			19		42					43	0	11	0	9	1	0	4	6	5	1	0	0	-4	0	313
6.6.1	mac	0	2023-10-16	14:57:14	1	1	1	experiment	2	2	3	feedback	1000	45	15	6	11	75.5	32	328	314	14		26	11	erasure	11	61	6.623999999999999666	92	7		30	21	0.5350324699038249143	30	30	43	0	12	0	10	1	0	4	6	5	1	0	0	-5	0	313
6.6.1	mac	0	2023-10-16	14:57:14	1	1	1	experiment	2	2	3	ITI	220	45	15	6	11	75.5	32	328	314	14		27	12	erasure	12	61			7		30					43	0	12	0	10	1	0	4	6	5	1	0	0	-5	0	313
6.6.1	mac	0	2023-10-16	14:57:14	1	1	1	experiment	2	2	3	preFreeze	580	45	15	6	11	75.5	32	328	314	14		27	12	erasure	12	61			7		30					43	0	12	0	10	1	0	4	6	5	1	0	0	-5	0	313
6.6.1	mac	0	2023-10-16	14:57:14	1	1	1	experiment	2	2	3	clock	511	45	15	6	11	75.5	32	328	314	14		27	12	erasure	12	65			7		30					43	0	12	0	10	1	0	4	6	5	1	0	0	-5	0	313
6.6.1	mac	0	2023-10-16	14:57:14	1	1	1	experiment	2	2	3	ISI	200	45	15	6	11	75.5	32	328	314	14		27	12	erasure	12	65			7		30					43	0	12	0	10	1	0	4	6	5	1	0	0	-5	0	313
6.6.1	mac	0	2023-10-16	14:57:14	1	1	1	experiment	2	2	3	feedback	1000	45	15	6	11	75.5	32	328	314	14		27	12	erasure	12	65	0.7920000000000000373	11	1		29	20.2999999999999971578	0.5383953369544808298	29	29	43	0	13	0	11	1	0	4	6	5	1	0	0	-6	0	313
6.6.1	mac	0	2023-10-16	14:57:14	1	1	1	experiment	2	2	3	ITI	110	45	15	6	11	75.5	32	328	314	14		28	13	erasure	13	65			1		29					43	0	13	0	11	1	0	4	6	5	1	0	0	-6	0	313
6.6.1	mac	0	2023-10-16	14:57:14	1	1	1	experiment	2	2	3	preFreeze	650	45	15	6	11	75.5	32	328	314	14		28	13	erasure	13	65			1		29					43	0	13	0	11	1	0	4	6	5	1	0	0	-6	0	313
6.6.1	mac	0	2023-10-16	14:57:14	1	1	1	experiment	2	2	3	clock	465	45	15	6	11	75.5	32	328	314	14		28	13	erasure	13	21			1		29					43	0	13	0	11	1	0	4	6	5	1	0	0	-6	0	313
6.6.1	mac	0	2023-10-16	14:57:14	1	1	1	experiment	2	2	3	ISI	270	45	15	6	11	75.5	32	328	314	14		28	13	erasure	13	21			1		29					43	0	13	0	11	1	0	4	6	5	1	0	0	-6	0	313
6.6.1	mac	0	2023-10-16	14:57:14	1	1	1	experiment	2	2	3	feedback	1000	45	15	6	11	75.5	32	328	314	14		28	13	erasure	13	21	199.0800000000000125056	2765	199		132	92.3999999999999914735	0.1206860577502953946	132	132	43	0	14	0	12	1	0	4	6	5	1	0	0	-7	0	313
6.6.1	mac	0	2023-10-16	14:57:14	1	1	1	experiment	2	2	3	ITI	200	45	15	6	11	75.5	32	328	314	14		29	14	erasure	14	21			199		132					43	0	14	0	12	1	0	4	6	5	1	0	0	-7	0	313
6.6.1	mac	0	2023-10-16	14:57:14	1	1	1	experiment	2	2	3	preFreeze	620	45	15	6	11	75.5	32	328	314	14		29	14	erasure	14	21			199		132					43	0	14	0	12	1	0	4	6	5	1	0	0	-7	0	313
6.6.1	mac	0	2023-10-16	14:57:14	1	1	1	experiment	2	2	3	clock	422	45	15	6	11	75.5	32	328	314	14		29	14	erasure	14	69			199		132					43	0	14	0	12	1	0	4	6	5	1	0	0	-7	0	313
6.6.1	mac	0	2023-10-16	14:57:14	1	1	1	experiment	2	2	3	ISI	250	45	15	6	11	75.5	32	328	314	14		29	14	erasure	14	69			199		132					43	0	14	0	12	1	0	4	6	5	1	0	0	-7	0	313
6.6.1	mac	0	2023-10-16	14:57:14	1	1	1	experiment	2	2	3	feedback	1000	45	15	6	11	75.5	32	328	314	14		29	14	erasure	14	69	8.7840000000000006963	122	9		32	22.3999999999999985789	0.8085897811242821476	10	10	43	0	15	0	13	1	0	4	6	5	1	0	0	-8	0	313
6.6.1	mac	0	2023-10-16	14:57:14	1	1	1	experiment	2	2	3	ITI	130	45	15	6	11	75.5	32	328	314	14		30	15	erasure	15	69			9		32					43	0	15	0	13	1	0	4	6	5	1	0	0	-8	0	313
6.6.1	mac	0	2023-10-16	14:57:14	1	1	1	experiment	2	2	3	preFreeze	640	45	15	6	11	75.5	32	328	314	14		30	15	erasure	15	69			9		32					43	0	15	0	13	1	0	4	6	5	1	0	0	-8	0	313
6.6.1	mac	0	2023-10-16	14:57:14	1	1	1	experiment	2	2	3	clock	444	45	15	6	11	75.5	32	328	314	14		30	15	erasure	15	24			9		32					43	0	15	0	13	1	0	4	6	5	1	0	0	-8	0	313
6.6.1	mac	0	2023-10-16	14:57:14	1	1	1	experiment	2	2	3	ISI	380	45	15	6	11	75.5	32	328	314	14		30	15	erasure	15	24			9		32					43	0	15	0	13	1	0	4	6	5	1	0	0	-8	0	313
6.6.1	mac	0	2023-10-16	14:57:14	1	1	1	experiment	2	2	3	feedback	1000	45	15	6	11	75.5	32	328	314	14		30	15	erasure	15	24	208.3679999999999949978	2894	208		123	86.0999999999999943157	0.0725164457858811229	123	123	43	0	16	0	14	1	0	4	6	5	1	0	0	-9	0	313
6.6.1	mac	0	2023-10-16	14:57:14	1	1	1	experiment	3	3	3	ITI	300	45	15	6	27	65	39	319	314	14		31	1	no_erasure	1	24			208		123					43		1	0	0	0		4	6	5	0	1	0	1	0	313
6.6.1	mac	0	2023-10-16	14:57:14	1	1	1	experiment	3	3	3	preFreeze	570	45	15	6	27	65	39	319	314	14		31	1	no_erasure	1	24			208		123					43		1	0	0	0		4	6	5	0	1	0	1	0	313
6.6.1	mac	0	2023-10-16	14:57:14	1	1	1	experiment	3	3	3	clock	414	45	15	6	27	65	39	319	314	14		31	1	no_erasure	1	49			208		123					43		1	0	0	0		4	6	5	0	1	0	1	0	313
6.6.1	mac	0	2023-10-16	14:57:14	1	1	1	experiment	3	3	3	ISI	600	45	15	6	27	65	39	319	314	14		31	1	no_erasure	1	49			208		123					43		1	0	0	0		4	6	5	0	1	0	1	0	313
6.6.1	mac	0	2023-10-16	14:57:14	1	1	1	experiment	3	3	3	feedback	1000	45	15	6	27	65	39	319	314	14		31	1	no_erasure	1	49	296.2080000000000268301	4114	296		24	16.7999999999999971578	0.2578433065809875857	24	24	43		2	0	0	1		4	6	5	0	1	0	0	0	313
6.6.1	mac	0	2023-10-16	14:57:14	1	1	1	experiment	3	3	3	ITI	410	45	15	6	27	65	39	319	314	14		32	2	attention	2	49			296		24					90	0	2	0	0	1	0	4	6	5	1	0	1	4	0	313
6.6.1	mac	0	2023-10-16	14:57:14	1	1	1	experiment	3	3	3	preFreeze	590	45	15	6	27	65	39	319	314	14		32	2	attention	2	49			296		24					90	0	2	0	0	1	0	4	6	5	1	0	1	4	0	313
6.6.1	mac	0	2023-10-16	14:57:14	1	1	1	experiment	3	3	3	clock	1550	45	15	6	27	65	39	319	314	14		32	2	attention	2	67			296		24					90	0	2	0	0	1	0	4	6	5	1	0	1	4	0	313
6.6.1	mac	0	2023-10-16	14:57:14	1	1	1	experiment	3	3	3	ISI	550	45	15	6	27	65	39	319	314	14		32	2	attention	2	67			296		24					90	0	2	0	0	1	0	4	6	5	1	0	1	4	0	313
6.6.1	mac	0	2023-10-16	14:57:14	1	1	1	experiment	3	3	3	feedback	1000	45	15	6	27	65	39	319	314	14		32	2	attention	2	67	82.7999999999999971578	1150	83		35	24.5	0.2047516424685603964	35	35	90	1	3	1	0	1	1	4	6	5	1	0	0	3	0	313
6.6.1	mac	0	2023-10-16	14:57:14	1	1	1	experiment	3	3	3	ITI	360	45	15	6	27	65	39	319	314	14		33	3	attention	3	67			83		35					90	1	3	1	0	1	1	4	6	5	1	0	0	3	0	313
6.6.1	mac	0	2023-10-16	14:57:14	1	1	1	experiment	3	3	3	preFreeze	700	45	15	6	27	65	39	319	314	14		33	3	attention	3	67			83		35					90	1	3	1	0	1	1	4	6	5	1	0	0	3	0	313
6.6.1	mac	0	2023-10-16	14:57:14	1	1	1	experiment	3	3	3	clock	1281	45	15	6	27	65	39	319	314	14		33	3	attention	3	74			83		35					90	1	3	1	0	1	1	4	6	5	1	0	0	3	0	313
6.6.1	mac	0	2023-10-16	14:57:14	1	1	1	experiment	3	3	3	ISI	360	45	15	6	27	65	39	319	314	14		33	3	attention	3	74			83		35					90	1	3	1	0	1	1	4	6	5	1	0	0	3	0	313
6.6.1	mac	0	2023-10-16	14:57:14	1	1	1	experiment	3	3	3	feedback	1000	45	15	6	27	65	39	319	314	14		33	3	attention	3	74	88.6320000000000050022	1231	89		33	23.0999999999999978684	0.6656615412015610689	33	33	90	1	4	2	0	1	2	4	6	5	1	0	0	2	0	313
6.6.1	mac	0	2023-10-16	14:57:14	1	1	1	experiment	3	3	3	ITI	280	45	15	6	27	65	39	319	314	14		34	4	no_erasure	4	74			89		33					90		4	2	0	1		4	6	5	0	1	0	1	0	313
6.6.1	mac	0	2023-10-16	14:57:14	1	1	1	experiment	3	3	3	preFreeze	560	45	15	6	27	65	39	319	314	14		34	4	no_erasure	4	74			89		33					90		4	2	0	1		4	6	5	0	1	0	1	0	313
6.6.1	mac	0	2023-10-16	14:57:14	1	1	1	experiment	3	3	3	clock	532	45	15	6	27	65	39	319	314	14		34	4	no_erasure	4	45			89		33					90		4	2	0	1		4	6	5	0	1	0	1	0	313
6.6.1	mac	0	2023-10-16	14:57:14	1	1	1	experiment	3	3	3	ISI	560	45	15	6	27	65	39	319	314	14		34	4	no_erasure	4	45			89		33					90		4	2	0	1		4	6	5	0	1	0	1	0	313
6.6.1	mac	0	2023-10-16	14:57:14	1	1	1	experiment	3	3	3	feedback	1000	45	15	6	27	65	39	319	314	14		34	4	no_erasure	4	45	290.3039999999999736247	4032	290		35	24.5	0.8059389027315049248	10	10	90		5	2	0	2		4	6	5	0	1	0	0	0	313
6.6.1	mac	0	2023-10-16	14:57:14	1	1	1	experiment	3	3	3	ITI	290	45	15	6	27	65	39	319	314	14		35	5	erasure	5	45			290		35					43	0	5	2	0	2	0	4	6	5	1	0	1	5	0	313
6.6.1	mac	0	2023-10-16	14:57:14	1	1	1	experiment	3	3	3	preFreeze	610	45	15	6	27	65	39	319	314	14		35	5	erasure	5	45			290		35					43	0	5	2	0	2	0	4	6	5	1	0	1	5	0	313
6.6.1	mac	0	2023-10-16	14:57:14	1	1	1	experiment	3	3	3	clock	1303	45	15	6	27	65	39	319	314	14		35	5	erasure	5	60			290		35					43	0	5	2	0	2	0	4	6	5	1	0	1	5	0	313
6.6.1	mac	0	2023-10-16	14:57:14	1	1	1	experiment	3	3	3	ISI	300	45	15	6	27	65	39	319	314	14		35	5	erasure	5	60			290		35					43	0	5	2	0	2	0	4	6	5	1	0	1	5	0	313
6.6.1	mac	0	2023-10-16	14:57:14	1	1	1	experiment	3	3	3	feedback	1000	45	15	6	27	65	39	319	314	14		35	5	erasure	5	60	39.8160000000000025011	553	40		47	32.8999999999999985789	0.5332642596990950778	47	47	43	1	6	2	1	2	1	4	6	5	1	0	0	4	0	313
6.6.1	mac	0	2023-10-16	14:57:14	1	1	1	experiment	3	3	3	ITI	250	45	15	6	27	65	39	319	314	14		36	6	erasure	6	60			40		47					43	1	6	2	1	2	1	4	6	5	1	0	0	4	0	313
6.6.1	mac	0	2023-10-16	14:57:14	1	1	1	experiment	3	3	3	preFreeze	500	45	15	6	27	65	39	319	314	14		36	6	erasure	6	60			40		47					43	1	6	2	1	2	1	4	6	5	1	0	0	4	0	313
6.6.1	mac	0	2023-10-16	14:57:14	1	1	1	experiment	3	3	3	clock	1732	45	15	6	27	65	39	319	314	14		36	6	erasure	6	51			40		47					43	1	6	2	1	2	1	4	6	5	1	0	0	4	0	313
6.6.1	mac	0	2023-10-16	14:57:14	1	1	1	experiment	3	3	3	ISI	580	45	15	6	27	65	39	319	314	14		36	6	erasure	6	51			40		47					43	1	6	2	1	2	1	4	6	5	1	0	0	4	0	313
6.6.1	mac	0	2023-10-16	14:57:14	1	1	1	experiment	3	3	3	feedback	1000	45	15	6	27	65	39	319	314	14		36	6	erasure	6	51	38.3040000000000020464	532	38		48	33.5999999999999943157	0.3617970248129677713	48	48	43	1	7	2	2	2	2	4	6	5	1	0	0	3	0	313
6.6.1	mac	0	2023-10-16	14:57:14	1	1	1	experiment	3	3	3	ITI	480	45	15	6	27	65	39	319	314	14		37	7	no_erasure	7	51			38		48					43		7	2	2	2		4	6	5	0	1	0	1	0	313
6.6.1	mac	0	2023-10-16	14:57:14	1	1	1	experiment	3	3	3	preFreeze	600	45	15	6	27	65	39	319	314	14		37	7	no_erasure	7	51			38		48					43		7	2	2	2		4	6	5	0	1	0	1	0	313
6.6.1	mac	0	2023-10-16	14:57:14	1	1	1	experiment	3	3	3	clock	2137	45	15	6	27	65	39	319	314	14		37	7	no_erasure	7	76			38		48					43		7	2	2	2		4	6	5	0	1	0	1	0	313
6.6.1	mac	0	2023-10-16	14:57:14	1	1	1	experiment	3	3	3	ISI	340	45	15	6	27	65	39	319	314	14		37	7	no_erasure	7	76			38		48					43		7	2	2	2		4	6	5	0	1	0	1	0	313
6.6.1	mac	0	2023-10-16	14:57:14	1	1	1	experiment	3	3	3	feedback	1000	45	15	6	27	65	39	319	314	14		37	7	no_erasure	7	76	157.4639999999999986358	2187	157		51	35.6999999999999957367	0.8261535334927387897	10	10	43		8	2	2	3		4	6	5	0	1	0	0	0	313
6.6.1	mac	0	2023-10-16	14:57:14	1	1	1	experiment	3	3	3	ITI	160	45	15	6	27	65	39	319	314	14		38	8	attention	8	76			157		51					90	0	8	2	2	3	0	4	6	5	1	0	1	2	0	313
6.6.1	mac	0	2023-10-16	14:57:14	1	1	1	experiment	3	3	3	preFreeze	670	45	15	6	27	65	39	319	314	14		38	8	attention	8	76			157		51					90	0	8	2	2	3	0	4	6	5	1	0	1	2	0	313
6.6.1	mac	0	2023-10-16	14:57:14	1	1	1	experiment	3	3	3	clock	526	45	15	6	27	65	39	319	314	14		38	8	attention	8	13			157		51					90	0	8	2	2	3	0	4	6	5	1	0	1	2	0	313
6.6.1	mac	0	2023-10-16	14:57:14	1	1	1	experiment	3	3	3	ISI	460	45	15	6	27	65	39	319	314	14		38	8	attention	8	13			157		51					90	0	8	2	2	3	0	4	6	5	1	0	1	2	0	313
6.6.1	mac	0	2023-10-16	14:57:14	1	1	1	experiment	3	3	3	feedback	1000	45	15	6	27	65	39	319	314	14		38	8	attention	8	13	174.6719999999999970441	2426	175		47	32.8999999999999985789	0.4389515822844001214	47	47	90	0	9	3	2	3	0	4	6	5	1	0	0	1	0	313
6.6.1	mac	0	2023-10-16	14:57:14	1	1	1	experiment	3	3	3	ITI	98	45	15	6	27	65	39	319	314	14		39	9	attention	9	13			175		47					90	0	9	3	2	3	0	4	6	5	1	0	0	1	0	313
