build	computer.platform	computer.touch	date	time	subject	group	sessionid	blockcode	blocknum	block	n_blocks	trialcode	latency	n_trials	block_length	best	trial	run_trial	block_type	list.triallist.currentindex	startPos	pos_shifted	rt_shifted	rt_index	list.curr_values.nextvalue	mag	ev	rng	inc	inc_rg	stim_center_deg	choose_stim	run_trial_dum	n_attention	n_erasure	n_no_erasure	n_clicks	require_attention	require_no_erasure	require_erasure	timeouts_remain	timeout_block	generate_new_erasure	n_curr_block	list.degrees_att.currentvalue	list.degrees_era.currentvalue
6.6.1	mac	0	2023-10-12	16:16:42	1	1	1	experiment	1	1	3	ITI	120	45	15	6	1	1	attention	1	0					0					119	0	1	0	0	0	0	4	6	5	1	0	1	4	29	
6.6.1	mac	0	2023-10-12	16:16:42	1	1	1	experiment	1	1	3	preFreeze	640	45	15	6	1	1	attention	1	0					0					119	0	1	0	0	0	0	4	6	5	1	0	1	4	29	
6.6.1	mac	0	2023-10-12	16:16:42	1	1	1	experiment	1	1	3	clock	219	45	15	6	1	1	attention	1	21					0					119	0	1	0	0	0	0	4	6	5	1	0	1	4	29	
6.6.1	mac	0	2023-10-12	16:16:42	1	1	1	experiment	1	1	3	ISI	480	45	15	6	1	1	attention	1	21					0					119	0	1	0	0	0	0	4	6	5	1	0	1	4	29	
6.6.1	mac	0	2023-10-12	16:16:42	1	1	1	experiment	1	1	3	feedback	1000	45	15	6	1	1	attention	1	21	181.3679999999999949978	2519	181		158	110.5999999999999943157	0.6802220325172464443	158	150	119	0	2	1	0	0	0	4	6	5	1	0	0	3	29	
6.6.1	mac	0	2023-10-12	16:16:42	1	1	1	experiment	1	1	3	ITI	170	45	15	6	2	2	attention	2	21			181		158					119	0	2	1	0	0	0	4	6	5	1	0	0	3	29	
6.6.1	mac	0	2023-10-12	16:16:42	1	1	1	experiment	1	1	3	preFreeze	620	45	15	6	2	2	attention	2	21			181		158					119	0	2	1	0	0	0	4	6	5	1	0	0	3	29	
6.6.1	mac	0	2023-10-12	16:16:42	1	1	1	experiment	1	1	3	clock	272	45	15	6	2	2	attention	2	61			181		158					119	0	2	1	0	0	0	4	6	5	1	0	0	3	29	
6.6.1	mac	0	2023-10-12	16:16:42	1	1	1	experiment	1	1	3	ISI	550	45	15	6	2	2	attention	2	61			181		158					119	0	2	1	0	0	0	4	6	5	1	0	0	3	29	
6.6.1	mac	0	2023-10-12	16:16:42	1	1	1	experiment	1	1	3	feedback	1000	45	15	6	2	2	attention	2	61	329.1840000000000259206	4572	329		23	16.0999999999999978684	0.2835674470485112231	23	23	119	0	3	2	0	0	0	4	6	5	1	0	0	2	29	
6.6.1	mac	0	2023-10-12	16:16:42	1	1	1	experiment	1	1	3	ITI	270	45	15	6	3	3	attention	3	61			329		23					119	0	3	2	0	0	0	4	6	5	1	0	0	2	29	
6.6.1	mac	0	2023-10-12	16:16:42	1	1	1	experiment	1	1	3	preFreeze	530	45	15	6	3	3	attention	3	61			329		23					119	0	3	2	0	0	0	4	6	5	1	0	0	2	29	
6.6.1	mac	0	2023-10-12	16:16:42	1	1	1	experiment	1	1	3	clock	317	45	15	6	3	3	attention	3	24			329		23					119	0	3	2	0	0	0	4	6	5	1	0	0	2	29	
6.6.1	mac	0	2023-10-12	16:16:42	1	1	1	experiment	1	1	3	ISI	450	45	15	6	3	3	attention	3	24			329		23					119	0	3	2	0	0	0	4	6	5	1	0	0	2	29	
6.6.1	mac	0	2023-10-12	16:16:42	1	1	1	experiment	1	1	3	feedback	1000	45	15	6	3	3	attention	3	24	199.2239999999999895408	2767	199		119	83.2999999999999971578	0.6974965372815487008	119	119	119	0	4	3	0	0	0	4	6	5	1	0	0	1	29	
6.6.1	mac	0	2023-10-12	16:16:42	1	1	1	experiment	1	1	3	ITI	100	45	15	6	4	4	attention	4	24			199		119					119	0	4	3	0	0	0	4	6	5	1	0	0	1	29	
6.6.1	mac	0	2023-10-12	16:16:42	1	1	1	experiment	1	1	3	preFreeze	660	45	15	6	4	4	attention	4	24			199		119					119	0	4	3	0	0	0	4	6	5	1	0	0	1	29	
6.6.1	mac	0	2023-10-12	16:16:42	1	1	1	experiment	1	1	3	clock	308	45	15	6	4	4	attention	4	17			199		119					119	0	4	3	0	0	0	4	6	5	1	0	0	1	29	
6.6.1	mac	0	2023-10-12	16:16:42	1	1	1	experiment	1	1	3	ISI	370	45	15	6	4	4	attention	4	17			199		119					119	0	4	3	0	0	0	4	6	5	1	0	0	1	29	
6.6.1	mac	0	2023-10-12	16:16:42	1	1	1	experiment	1	1	3	feedback	1000	45	15	6	4	4	attention	4	17	173.3760000000000047748	2408	173		161	112.6999999999999886313	0.3595604585389514662	161	150	119	0	5	4	0	0	0	4	6	5	1	0	0	0	29	
6.6.1	mac	0	2023-10-12	16:16:42	1	1	1	experiment	1	1	3	ITI	380	45	15	6	5	5	attention	5	17			173		161					119	0	5	4	0	0	0	4	6	5	1	0	0	0	29	
6.6.1	mac	0	2023-10-12	16:16:42	1	1	1	experiment	1	1	3	preFreeze	630	45	15	6	5	5	attention	5	17			173		161					119	0	5	4	0	0	0	4	6	5	1	0	0	0	29	
6.6.1	mac	0	2023-10-12	16:16:42	1	1	1	experiment	1	1	3	clock	328	45	15	6	5	5	attention	5	10			173		161					119	0	5	4	0	0	0	4	6	5	1	0	0	0	29	
6.6.1	mac	0	2023-10-12	16:16:42	1	1	1	experiment	1	1	3	ISI	600	45	15	6	5	5	attention	5	10			173		161					119	0	5	4	0	0	0	4	6	5	1	0	0	0	29	
6.6.1	mac	0	2023-10-12	16:16:42	1	1	1	experiment	1	1	3	feedback	665	45	15	6	5	5	attention	5	10	149.6160000000000138698	2078	150		107	74.8999999999999914735	0.1881704051485681983	107	107	119	0	6	5	0	0	0	4	6	5	1	0	0	-1	29	
