build	computer.platform	computer.touch	date	time	subject	group	sessionid	blockcode	blocknum	block	n_blocks	trialcode	latency	n_trials	block_length	best	lower_quartile	upper_quartile	list.curr_values_temp.median	erasure_index	erasure_RT	erasure_value	erasure_degrees	trial	run_trial	block_type	list.triallist.currentindex	startPos	pos_shifted	rt_shifted	rt_index	list.curr_values.currentvalue	mag	ev	rng	inc	inc_rg	stim_center_deg	choose_stim	run_trial_dum	n_attention	n_erasure	n_no_erasure	n_clicks	require_attention	require_no_erasure	require_erasure	timeouts_remain	timeout_block	generate_new_erasure	n_curr_block	list.degrees_att.currentvalue	list.degrees_era.currentvalue
6.6.1	mac	0	2023-10-16	14:53:21	1	1	1	experiment	1	1	3	ITI	230	45	15	6	11	75.5	32	98		68		1	1	erasure	1	0					0					0	0	1	0	0	0	0	4	6	5	1	0	1	5	0	
6.6.1	mac	0	2023-10-16	14:53:21	1	1	1	experiment	1	1	3	preFreeze	550	45	15	6	11	75.5	32	98		68		1	1	erasure	1	0					0					0	0	1	0	0	0	0	4	6	5	1	0	1	5	0	
6.6.1	mac	0	2023-10-16	14:53:21	1	1	1	experiment	1	1	3	clock	3312	45	15	6	11	75.5	32	98		68		1	1	erasure	1	34					0					0	0	1	0	0	0	0	4	6	5	1	0	1	5	0	
6.6.1	mac	0	2023-10-16	14:53:21	1	1	1	experiment	1	1	3	ISI	220	45	15	6	11	75.5	32	98		68		1	1	erasure	1	34					0					0	0	1	0	0	0	0	4	6	5	1	0	1	5	0	
6.6.1	mac	0	2023-10-16	14:53:21	1	1	1	experiment	1	1	3	feedback	1000	45	15	6	11	75.5	32	98		68		1	1	erasure	1	34	90.8640000000000043201	1262	91		13	9.0999999999999996447	0.0939686631536969658	13	13	0	0	2	0	1	0	0	4	6	5	1	0	0	4	0	
6.6.1	mac	0	2023-10-16	14:53:21	1	1	1	experiment	1	1	3	ITI	170	45	15	6	11	75.5	32	98		68		2	2	erasure	2	34			91		13					0	0	2	0	1	0	0	4	6	5	1	0	0	4	0	
6.6.1	mac	0	2023-10-16	14:53:21	1	1	1	experiment	1	1	3	preFreeze	640	45	15	6	11	75.5	32	98		68		2	2	erasure	2	34			91		13					0	0	2	0	1	0	0	4	6	5	1	0	0	4	0	
6.6.1	mac	0	2023-10-16	14:53:21	1	1	1	experiment	1	1	3	clock	1036	45	15	6	11	75.5	32	98		68		2	2	erasure	2	6			91		13					0	0	2	0	1	0	0	4	6	5	1	0	0	4	0	
6.6.1	mac	0	2023-10-16	14:53:21	1	1	1	experiment	1	1	3	ISI	480	45	15	6	11	75.5	32	98		68		2	2	erasure	2	6			91		13					0	0	2	0	1	0	0	4	6	5	1	0	0	4	0	
6.6.1	mac	0	2023-10-16	14:53:21	1	1	1	experiment	1	1	3	feedback	1000	45	15	6	11	75.5	32	98		68		2	2	erasure	2	6	186.192000000000007276	2586	186		152	106.3999999999999914735	0.5355849358103202951	152	150	0	0	3	0	2	0	0	4	6	5	1	0	0	3	0	
6.6.1	mac	0	2023-10-16	14:53:21	1	1	1	experiment	1	1	3	ITI	350	45	15	6	11	75.5	32	98		68		3	3	erasure	3	6			186		152					0	0	3	0	2	0	0	4	6	5	1	0	0	3	0	
6.6.1	mac	0	2023-10-16	14:53:21	1	1	1	experiment	1	1	3	preFreeze	500	45	15	6	11	75.5	32	98		68		3	3	erasure	3	6			186		152					0	0	3	0	2	0	0	4	6	5	1	0	0	3	0	
6.6.1	mac	0	2023-10-16	14:53:21	1	1	1	experiment	1	1	3	clock	391	45	15	6	11	75.5	32	98		68		3	3	erasure	3	88			186		152					0	0	3	0	2	0	0	4	6	5	1	0	0	3	0	
6.6.1	mac	0	2023-10-16	14:53:21	1	1	1	experiment	1	1	3	ISI	430	45	15	6	11	75.5	32	98		68		3	3	erasure	3	88			186		152					0	0	3	0	2	0	0	4	6	5	1	0	0	3	0	
6.6.1	mac	0	2023-10-16	14:53:21	1	1	1	experiment	1	1	3	feedback	1000	45	15	6	11	75.5	32	98		68		3	3	erasure	3	88	74.951999999999998181	1041	75		5	3.5	0.3726730468619319225	5	10	0	0	4	0	3	0	0	4	6	5	1	0	0	2	0	
6.6.1	mac	0	2023-10-16	14:53:21	1	1	1	experiment	1	1	3	ITI	250	45	15	6	11	75.5	32	98		68		4	4	erasure	4	88			75		5					0	0	4	0	3	0	0	4	6	5	1	0	0	2	0	
6.6.1	mac	0	2023-10-16	14:53:21	1	1	1	experiment	1	1	3	preFreeze	510	45	15	6	11	75.5	32	98		68		4	4	erasure	4	88			75		5					0	0	4	0	3	0	0	4	6	5	1	0	0	2	0	
6.6.1	mac	0	2023-10-16	14:53:21	1	1	1	experiment	1	1	3	clock	354	45	15	6	11	75.5	32	98		68		4	4	erasure	4	95			75		5					0	0	4	0	3	0	0	4	6	5	1	0	0	2	0	
6.6.1	mac	0	2023-10-16	14:53:21	1	1	1	experiment	1	1	3	ISI	250	45	15	6	11	75.5	32	98		68		4	4	erasure	4	95			75		5					0	0	4	0	3	0	0	4	6	5	1	0	0	2	0	
6.6.1	mac	0	2023-10-16	14:53:21	1	1	1	experiment	1	1	3	feedback	1000	45	15	6	11	75.5	32	98		68		4	4	erasure	4	95	97.4879999999999995453	1354	97		12	8.3999999999999985789	0.4393004168382148023	12	12	0	0	5	0	4	0	0	4	6	5	1	0	0	1	0	
6.6.1	mac	0	2023-10-16	14:53:21	1	1	1	experiment	1	1	3	ITI	190	45	15	6	11	75.5	32	98		68		5	5	erasure	5	95			97		12					0	0	5	0	4	0	0	4	6	5	1	0	0	1	0	
6.6.1	mac	0	2023-10-16	14:53:21	1	1	1	experiment	1	1	3	preFreeze	690	45	15	6	11	75.5	32	98		68		5	5	erasure	5	95			97		12					0	0	5	0	4	0	0	4	6	5	1	0	0	1	0	
6.6.1	mac	0	2023-10-16	14:53:21	1	1	1	experiment	1	1	3	clock	1058	45	15	6	11	75.5	32	98		68		5	5	erasure	5	79			97		12					0	0	5	0	4	0	0	4	6	5	1	0	0	1	0	
6.6.1	mac	0	2023-10-16	14:53:21	1	1	1	experiment	1	1	3	ISI	370	45	15	6	11	75.5	32	98		68		5	5	erasure	5	79			97		12					0	0	5	0	4	0	0	4	6	5	1	0	0	1	0	
6.6.1	mac	0	2023-10-16	14:53:21	1	1	1	experiment	1	1	3	feedback	1000	45	15	6	11	75.5	32	98		68		5	5	erasure	5	79	90.5759999999999934062	1258	91		6	4.1999999999999992895	0.0802846441697992047	6	10	0	0	6	0	5	0	0	4	6	5	1	0	0	0	0	
6.6.1	mac	0	2023-10-16	14:53:21	1	1	1	experiment	1	1	3	ITI	370	45	15	6	11	75.5	32	98		68		6	6	erasure	6	79			91		6					0	0	6	0	5	0	0	4	6	5	1	0	0	0	0	
6.6.1	mac	0	2023-10-16	14:53:21	1	1	1	experiment	1	1	3	preFreeze	580	45	15	6	11	75.5	32	98		68		6	6	erasure	6	79			91		6					0	0	6	0	5	0	0	4	6	5	1	0	0	0	0	
6.6.1	mac	0	2023-10-16	14:53:21	1	1	1	experiment	1	1	3	clock	297	45	15	6	11	75.5	32	98		68		6	6	erasure	6	52			91		6					0	0	6	0	5	0	0	4	6	5	1	0	0	0	0	
