"build","computer.platform","computer.touch","date","time","subject","group","sessionid","blockcode","blocknum","trialcode","latency","randStart","startPos","scrfunc","rtvspos","randStart","mag","freq","ev","inc","rng","startPos","fogPos1","fogPos2","chooseUncertainty1","chooseUncertainty2","uncertaintyCount1","uncertaintyCount2","blockCount","ntrials","trialCount","uncertaintyStart1","uncertaintyStart2","uncertainty_block","rt_shifted","totalPoints","totalEarnings","Earnings"
"6.6.1","mac","0","2023-02-17","16:38:10","202847853","1","1","instructions","1","instructions1","2050","1","75","IEV","POS","1","","","","","","75","0","0","0","0","0","0","0","10","0","0","0","0","","0","0",""
"6.6.1","mac","0","2023-02-17","16:38:10","202847853","1","1","instructions","1","displayGoodJob","1155","1","75","IEV","POS","1","","","","","","75","0","0","0","0","0","0","0","10","0","0","0","0","","0","0",""
"6.6.1","mac","0","2023-02-17","16:38:10","202847853","1","1","instructions","1","feedback2_5","3000","1","75","IEV","POS","1","","","","","","75","0","0","0","0","0","0","0","10","0","0","0","0","","0","0","0"
"6.6.1","mac","0","2023-02-17","16:38:10","202847853","1","1","instructions","1","instructions3","874","1","75","IEV","POS","1","","","","","","75","0","0","0","0","0","0","0","10","0","0","0","0","","0","0","0"
"6.6.1","mac","0","2023-02-17","16:38:10","202847853","1","1","instructions","1","instructions4","2910","1","75","IEV","POS","1","","","","","","75","0","0","0","0","0","0","0","10","0","0","0","0","","0","0","0"
"6.6.1","mac","0","2023-02-17","16:38:10","202847853","1","1","instructions","1","sampleResponse","3000","1","75","IEV","POS","1","","","","","","75","0","0","0","0","0","0","0","10","0","0","0","0","2910","0","0","0"
"6.6.1","mac","0","2023-02-17","16:38:10","202847853","1","1","instructions","1","instructions5","1377","1","75","IEV","POS","1","","","","","","75","0","0","0","0","0","0","0","10","0","0","0","0","2910","0","0","0"
"6.6.1","mac","0","2023-02-17","16:38:10","202847853","1","1","instructions","1","countdown","1000","1","75","IEV","POS","1","","","","","","75","0","0","0","0","0","0","0","10","0","0","0","0","2910","0","0","0"
"6.6.1","mac","0","2023-02-17","16:38:10","202847853","1","1","experiment","2","experiment_noU","880","1","83","CEVR","POS","1","","","","","","83","35","10","0","0","0","0","1","36","0","5","27","0","2910","0","0","0"
"6.6.1","mac","0","2023-02-17","16:38:10","202847853","1","1","experiment","2","dispFeedback_noU","1000","1","83","CEVR","POS","1","143","0.2579681274900398336","36.9999999999999928946","143","0.4226568223495634213","83","35","10","0","0","0","0","1","36","1","5","27","0","1280","143","10","10"
"6.6.1","mac","0","2023-02-17","16:38:10","202847853","1","1","experiment","2","experiment_noU","289","1","79","CEVR","POS","1","","","","","","79","35","10","0","0","0","0","1","36","1","5","27","0","1280","143","10","10"
"6.6.1","mac","0","2023-02-17","16:38:10","202847853","1","1","experiment","2","dispFeedback_noU","1000","1","79","CEVR","POS","1","168","0.2228532094303906363","37.445706418860780218","168","0.4355726017233851888","79","35","10","0","0","0","0","1","36","2","5","27","0","489","311","20","10"
"6.6.1","mac","0","2023-02-17","16:38:10","202847853","1","1","experiment","2","experiment_noU","1078","1","59","CEVR","POS","1","","","","","","59","35","10","0","0","0","0","1","36","2","5","27","0","489","311","20","10"
"6.6.1","mac","0","2023-02-17","16:38:10","202847853","1","1","experiment","2","dispFeedback_noU","1000","1","59","CEVR","POS","1","170","0.21504483560278978","36.569910328794428267","170","0.7670695259624787932","59","35","10","0","0","0","0","1","36","3","5","27","0","278","481","30","10"
"6.6.1","mac","0","2023-02-17","16:38:10","202847853","1","1","experiment","2","experiment_noU","519","1","72","CEVR","POS","1","","","","","","72","35","10","0","0","0","0","1","36","3","5","27","0","278","481","30","10"
"6.6.1","mac","0","2023-02-17","16:38:10","202847853","1","1","experiment","2","dispFeedback_noU","1000","1","72","CEVR","POS","1","173","0.2183442926993761635","37.8733771707975037657","173","0.4622394886012746729","72","35","10","0","0","0","0","1","36","4","5","27","0","369","654","40","10"
"6.6.1","mac","0","2023-02-17","16:38:10","202847853","1","1","experiment","2","experiment_noU","2869","1","24","CEVR","POS","1","","","","","","24","35","10","0","0","0","0","1","36","4","5","27","0","369","654","40","10"
"6.6.1","mac","0","2023-02-17","16:38:10","202847853","1","1","experiment","2","dispFeedback_noU","1000","1","24","CEVR","POS","1","175","0.2165189767597391624","37.86607590703895454","175","0.2348126255056850187","24","35","10","0","0","0","0","1","36","5","5","27","1","319","829","50","10"
"6.6.1","mac","0","2023-02-17","16:38:10","202847853","1","1","experiment","2","experiment_U","4831","1","81","CEVR","POS","1","","","","","","81","35","10","0","0","0","0","1","36","5","5","27","1","319","829","50","10"
"6.6.1","mac","0","2023-02-17","16:38:10","202847853","1","1","experiment","2","dispFeedback_U","1000","1","81","CEVR","POS","1","176","0.2099205705949100387","37","176","0.9988560716153253027","81","35","10","1","0","1","0","1","36","6","5","27","1","131","1005","60","10"
"6.6.1","mac","0","2023-02-17","16:38:10","202847853","1","1","experiment","2","experiment_U","1368","1","50","CEVR","POS","1","","","","","","50","35","10","1","0","1","0","1","36","6","5","27","1","131","1005","60","10"
"6.6.1","mac","0","2023-02-17","16:38:10","202847853","1","1","experiment","2","dispFeedback_U","1000","1","50","CEVR","POS","1","175","0.2094791329666774726","36.5810417340666518271","175","0.177703902865225416","50","35","10","2","0","2","0","1","36","7","5","27","1","118","1180","70","10"
"6.6.1","mac","0","2023-02-17","16:38:10","202847853","1","1","experiment","2","experiment_U","2837","1","22","CEVR","POS","1","","","","","","22","35","10","2","0","2","0","1","36","7","5","27","1","118","1180","70","10"
"6.6.1","mac","0","2023-02-17","16:38:10","202847853","1","1","experiment","2","dispFeedback_U","1000","1","22","CEVR","POS","1","176","0.2118436119744806223","37.2118436119744799839","176","0.2483627996985713904","22","35","10","3","0","3","0","1","36","8","5","27","1","187","1356","80","10"
"6.6.1","mac","0","2023-02-17","16:38:10","202847853","1","1","experiment","2","experiment_U","1243","1","55","CEVR","POS","1","","","","","","55","35","10","3","0","3","0","1","36","8","5","27","1","187","1356","80","10"
"6.6.1","mac","0","2023-02-17","16:38:10","202847853","1","1","experiment","2","dispFeedback_U","1000","1","55","CEVR","POS","1","178","0.2138022123163282051","38.0690110615816408313","178","0.3092763424639767833","55","35","10","4","0","4","0","1","36","9","5","27","0","243","1534","90","10"
"6.6.1","mac","0","2023-02-17","16:38:10","202847853","1","1","experiment","2","experiment_noU","2647","1","25","CEVR","POS","1","","","","","","25","35","10","4","0","4","0","1","36","9","5","27","0","243","1534","90","10"
"6.6.1","mac","0","2023-02-17","16:38:10","202847853","1","1","experiment","2","dispFeedback_noU","1000","1","25","CEVR","POS","1","173","0.2104664391353811281","36.3686006825938648035","173","0.1231723826199705718","25","35","10","4","0","4","0","1","36","10","5","27","0","147","1707","100","10"
"6.6.1","mac","0","2023-02-17","16:38:10","202847853","1","1","experiment","2","experiment_noU","2203","1","34","CEVR","POS","1","","","","","","34","35","10","4","0","4","0","1","36","10","5","27","0","147","1707","100","10"
"6.6.1","mac","0","2023-02-17","16:38:10","202847853","1","1","experiment","2","dispFeedback_noU","1000","1","34","CEVR","POS","1","178","0.2106718724581096436","37.4213437449162213966","178","0.3577858254680842953","34","35","10","4","0","4","0","1","36","11","5","27","0","153","1885","110","10"
"6.6.1","mac","0","2023-02-17","16:38:10","202847853","1","1","experiment","2","experiment_noU","612","1","67","CEVR","POS","1","","","","","","67","35","10","4","0","4","0","1","36","11","5","27","0","153","1885","110","10"
"6.6.1","mac","0","2023-02-17","16:38:10","202847853","1","1","experiment","2","dispFeedback_noU","1000","1","67","CEVR","POS","1","174","0.2127135348226018574","37","174","0.2664192470876544649","67","35","10","4","0","4","0","1","36","12","5","27","0","212","2059","120","10"
"6.6.1","mac","0","2023-02-17","16:38:10","202847853","1","1","experiment","2","experiment_noU","1703","1","45","CEVR","POS","1","","","","","","45","35","10","4","0","4","0","1","36","12","5","27","0","212","2059","120","10"
"6.6.1","mac","0","2023-02-17","16:38:10","202847853","1","1","experiment","2","dispFeedback_noU","1000","1","45","CEVR","POS","1","169","0.2123995407577497219","35.9380022962112519735","169","0.6840112411147010185","45","35","10","4","0","4","0","1","36","13","5","27","0","203","2228","130","10"
"6.6.1","mac","0","2023-02-17","16:38:10","202847853","1","1","experiment","2","experiment_noU","2555","1","29","CEVR","POS","1","","","","","","29","35","10","4","0","4","0","1","36","13","5","27","0","203","2228","130","10"
"6.6.1","mac","0","2023-02-17","16:38:10","202847853","1","1","experiment","2","dispFeedback_noU","1000","1","29","CEVR","POS","1","176","0.2142266335814722866","37.6426799007444188305","176","0.8434337894067712726","29","35","10","4","0","4","0","1","36","14","5","27","0","255","2404","140","10"
"6.6.1","mac","0","2023-02-17","16:38:10","202847853","1","1","experiment","2","experiment_noU","3179","1","14","CEVR","POS","1","","","","","","14","35","10","4","0","4","0","1","36","14","5","27","0","255","2404","140","10"
"6.6.1","mac","0","2023-02-17","16:38:10","202847853","1","1","experiment","2","dispFeedback_noU","1000","1","14","CEVR","POS","1","177","0.2098525360557446096","37.209852536055741723","177","0.4693398127493774163","14","35","10","4","0","4","0","1","36","15","5","27","0","129","2581","150","10"
"6.6.1","mac","0","2023-02-17","16:38:10","202847853","1","1","experiment","2","experiment_noU","4611","1","82","CEVR","POS","1","","","","","","82","35","10","4","0","4","0","1","36","15","5","27","0","129","2581","150","10"
"6.6.1","mac","0","2023-02-17","16:38:10","202847853","1","1","experiment","2","dispFeedback_noU","1000","1","82","CEVR","POS","1","41","0.9671396564600448498","39.9014189693801313297","41","0.2218540092515419171","82","35","10","4","0","4","0","1","36","16","5","27","0","4961","2622","153","3"
"6.6.1","mac","0","2023-02-17","16:38:10","202847853","1","1","experiment","2","experiment_noU","2415","1","32","CEVR","POS","1","","","","","","32","35","10","4","0","4","0","1","36","16","5","27","0","4961","2622","153","3"
"6.6.1","mac","0","2023-02-17","16:38:10","202847853","1","1","experiment","2","dispFeedback_noU","1000","1","32","CEVR","POS","1","167","0.2145816072908036665","35.927091963545983333","167","0.2036228345715493937","32","35","10","4","0","4","0","1","36","17","5","27","0","265","2789","163","10"
"6.6.1","mac","0","2023-02-17","16:38:10","202847853","1","1","experiment","2","experiment_noU","3481","1","8","CEVR","POS","1","","","","","","8","35","10","4","0","4","0","1","36","17","5","27","0","265","2789","163","10"
"6.6.1","mac","0","2023-02-17","16:38:10","202847853","1","1","experiment","2","dispFeedback_noU","1000","1","8","CEVR","POS","1","181","0.2099205705949100387","38.0496028529745444757","181","0.5205034433213303613","8","35","10","4","0","4","0","1","36","18","5","27","0","131","2970","173","10"
"6.6.1","mac","0","2023-02-17","16:38:10","202847853","1","1","experiment","2","experiment_noU","4731","1","83","CEVR","POS","1","","","","","","83","35","10","4","0","4","0","1","36","18","5","27","0","131","2970","173","10"
"6.6.1","mac","0","2023-02-17","16:38:10","202847853","1","1","experiment","2","dispFeedback_noU","1000","1","83","CEVR","POS","1","174","0.2099205705949100387","36.5801588588101793675","174","0.2213163702332685556","83","35","10","4","0","4","0","1","36","19","5","27","0","131","3144","183","10"
"6.6.1","mac","0","2023-02-17","16:38:10","202847853","1","1","experiment","2","experiment_noU","513","1","68","CEVR","POS","1","","","","","","68","35","10","4","0","4","0","1","36","19","5","27","0","131","3144","183","10"
"6.6.1","mac","0","2023-02-17","16:38:10","202847853","1","1","experiment","2","dispFeedback_noU","1000","1","68","CEVR","POS","1","177","0.2110151539840313117","37.4220303079680647329","177","0.364000777565874345","68","35","10","4","0","4","0","1","36","20","5","27","0","163","3321","193","10"
"6.6.1","mac","0","2023-02-17","16:38:10","202847853","1","1","experiment","2","experiment_noU","2652","1","24","CEVR","POS","1","","","","","","24","35","10","4","0","4","0","1","36","20","5","27","0","163","3321","193","10"
"6.6.1","mac","0","2023-02-17","16:38:10","202847853","1","1","experiment","2","dispFeedback_noU","1000","1","24","CEVR","POS","1","180","0.2089383672152307359","37.6268151016456968705","180","0.6302563407528810613","24","35","10","4","0","4","0","1","36","21","5","27","0","102","3501","203","10"
"6.6.1","mac","0","2023-02-17","16:38:10","202847853","1","1","experiment","2","experiment_noU","3166","1","15","CEVR","POS","1","","","","","","15","35","10","4","0","4","0","1","36","21","5","27","0","102","3501","203","10"
"6.6.1","mac","0","2023-02-17","16:38:10","202847853","1","1","experiment","2","dispFeedback_noU","1000","1","15","CEVR","POS","1","171","0.211118356700358667","36.1555265731985713273","171","0.2209833728198389025","15","35","10","4","0","4","0","1","36","22","5","27","0","166","3672","213","10"
"6.6.1","mac","0","2023-02-17","16:38:10","202847853","1","1","experiment","2","experiment_noU","4032","1","98","CEVR","POS","1","","","","","","98","35","10","4","0","4","0","1","36","22","5","27","0","166","3672","213","10"
"6.6.1","mac","0","2023-02-17","16:38:10","202847853","1","1","experiment","2","dispFeedback_noU","1000","1","98","CEVR","POS","1","170","0.2116704805491990971","35.9416475972540112593","170","0.2019879688047775956","98","35","10","4","0","4","0","1","36","23","5","27","0","182","3842","223","10"
"6.6.1","mac","0","2023-02-17","16:38:10","202847853","1","1","experiment","2","experiment_noU","4696","1","82","CEVR","POS","1","","","","","","82","35","10","4","0","4","0","1","36","23","5","27","0","182","3842","223","10"
"6.6.1","mac","0","2023-02-17","16:38:10","202847853","1","1","experiment","2","dispFeedback_noU","1000","1","82","CEVR","POS","1","178","0.2070674768148385025","36.7929325231851578337","178","0.3686058652514139777","82","35","10","4","0","4","0","1","36","24","5","27","0","46","4020","233","10"
"6.6.1","mac","0","2023-02-17","16:38:10","202847853","1","1","experiment","2","experiment_noU","350","1","68","CEVR","POS","1","","","","","","68","35","10","4","0","4","0","1","36","24","5","27","0","46","4020","233","10"
"6.6.1","mac","0","2023-02-17","16:38:10","202847853","1","1","experiment","2","dispFeedback_noU","1000","1","68","CEVR","POS","1","180","0.2055555555555555747","37","180","0.5774682724330267858","68","35","10","4","0","4","0","1","36","25","5","27","0","0","4200","243","10"
"6.6.1","mac","0","2023-02-17","16:38:10","202847853","1","1","experiment","2","experiment_noU","887","1","60","CEVR","POS","1","","","","","","60","35","10","4","0","4","0","1","36","25","5","27","0","0","4200","243","10"
"6.6.1","mac","0","2023-02-17","16:38:10","202847853","1","1","experiment","2","dispFeedback_noU","1000","1","60","CEVR","POS","1","174","0.2101249391530098931","36.5797501216939835444","174","0.8652239804773647069","60","35","10","4","0","4","0","1","36","26","5","27","0","137","4374","253","10"
"6.6.1","mac","0","2023-02-17","16:38:10","202847853","1","1","experiment","2","experiment_noU","3665","1","3","CEVR","POS","1","","","","","","3","35","10","4","0","4","0","1","36","26","5","27","0","137","4374","253","10"
"6.6.1","mac","0","2023-02-17","16:38:10","202847853","1","1","experiment","2","dispFeedback_noU","1000","1","3","CEVR","POS","1","180","0.207698476343223748","37.4153969526864500494","180","0.6592105961542601422","3","35","10","4","0","4","0","1","36","27","5","27","2","65","4554","263","10"
"6.6.1","mac","0","2023-02-17","16:38:10","202847853","1","1","experiment","2","experiment_U","4545","1","85","CEVR","POS","1","","","","","","85","35","10","4","0","4","0","1","36","27","5","27","2","65","4554","263","10"
"6.6.1","mac","0","2023-02-17","16:38:10","202847853","1","1","experiment","2","dispFeedback_U","1000","1","85","CEVR","POS","1","177","0.2070343725019984094","36.5859312549960051797","177","0.5239110066378281916","85","35","10","4","1","4","1","1","36","28","5","27","2","45","4731","273","10"
"6.6.1","mac","0","2023-02-17","16:38:10","202847853","1","1","experiment","2","experiment_U","4620","1","86","CEVR","POS","1","","","","","","86","35","10","4","1","4","1","1","36","28","5","27","2","45","4731","273","10"
"6.6.1","mac","0","2023-02-17","16:38:10","202847853","1","1","experiment","2","dispFeedback_U","1000","1","86","CEVR","POS","1","177","0.2112561174551386423","37.4225122349102718999","177","0.1517312585263818625","86","35","10","4","2","4","2","1","36","29","5","27","2","170","4908","283","10"
"6.6.1","mac","0","2023-02-17","16:38:10","202847853","1","1","experiment","2","experiment_U","4173","1","94","CEVR","POS","1","","","","","","94","35","10","4","2","4","2","1","36","29","5","27","2","170","4908","283","10"
"6.6.1","mac","0","2023-02-17","16:38:10","202847853","1","1","experiment","2","dispFeedback_U","1000","1","94","CEVR","POS","1","173","0.2096486967783713906","36.3710539096648872714","173","0.2527090034570332877","94","35","10","4","3","4","3","1","36","30","5","27","2","123","5081","293","10"
"6.6.1","mac","0","2023-02-17","16:38:10","202847853","1","1","experiment","2","experiment_U","1342","1","52","CEVR","POS","1","","","","","","52","35","10","4","3","4","3","1","36","30","5","27","2","123","5081","293","10"
"6.6.1","mac","0","2023-02-17","16:38:10","202847853","1","1","experiment","2","dispFeedback_U","1000","1","52","CEVR","POS","1","176","0.212017026850032736","37.2120170268500274346","176","0.6482608671412479762","52","35","10","4","4","4","4","1","36","31","5","27","0","192","5257","303","10"
"6.6.1","mac","0","2023-02-17","16:38:10","202847853","1","1","experiment","2","experiment_noU","3838","1","2","CEVR","POS","1","","","","","","2","35","10","4","4","4","4","1","36","31","5","27","0","192","5257","303","10"
"6.6.1","mac","0","2023-02-17","16:38:10","202847853","1","1","experiment","2","dispFeedback_noU","1000","1","2","CEVR","POS","1","174","0.2118782722513088967","36.7881217277486882722","174","0.2785355454027968469","2","35","10","4","4","4","4","1","36","32","5","27","0","188","5431","313","10"
"6.6.1","mac","0","2023-02-17","16:38:10","202847853","1","1","experiment","2","experiment_noU","3374","1","12","CEVR","POS","1","","","","","","12","35","10","4","4","4","4","1","36","32","5","27","0","188","5431","313","10"
"6.6.1","mac","0","2023-02-17","16:38:10","202847853","1","1","experiment","2","dispFeedback_noU","1000","1","12","CEVR","POS","1","178","0.2131336405529954126","37.852534562211985758","178","0.1475962272723196633","12","35","10","4","4","4","4","1","36","33","5","27","0","224","5609","323","10"
"6.6.1","mac","0","2023-02-17","16:38:10","202847853","1","1","experiment","2","experiment_noU","1764","1","42","CEVR","POS","1","","","","","","42","35","10","4","4","4","4","1","36","33","5","27","0","224","5609","323","10"
"6.6.1","mac","0","2023-02-17","16:38:10","202847853","1","1","experiment","2","dispFeedback_noU","1000","1","42","CEVR","POS","1","174","0.2093436792757840392","36.3719689621726445239","174","0.0021898935088398618","42","35","10","4","4","4","4","1","36","34","5","27","0","114","5783","333","10"
"6.6.1","mac","0","2023-02-17","16:38:10","202847853","1","1","experiment","2","experiment_noU","3884","1","0","CEVR","POS","1","","","","","","0","35","10","4","4","4","4","1","36","34","5","27","0","114","5783","333","10"
"6.6.1","mac","0","2023-02-17","16:38:10","202847853","1","1","experiment","2","dispFeedback_noU","1000","1","0","CEVR","POS","1","180","0.2100227051573143322","37.8400908206292641012","180","0.1479010950186990803","0","35","10","4","4","4","4","1","36","35","5","27","0","134","5963","343","10"
"6.6.1","mac","0","2023-02-17","16:38:10","202847853","1","1","experiment","2","experiment_noU","2984","1","18","CEVR","POS","1","","","","","","18","35","10","4","4","4","4","1","36","35","5","27","0","134","5963","343","10"
"6.6.1","mac","0","2023-02-17","16:38:10","202847853","1","1","experiment","2","dispFeedback_noU","1000","1","18","CEVR","POS","1","176","0.2100227051573143322","37.0000000000000071054","176","0.3886021974935667256","18","35","10","4","4","4","4","1","36","36","5","27","0","134","6139","353","10"
"6.6.1","mac","0","2023-02-17","16:38:10","202847853","1","1","experiment","3","experiment_noU","1655","1","46","DEV","POS","1","","","","","","46","25","30","0","0","0","0","2","42","0","9","24","0","134","6139","353","10"
"6.6.1","mac","0","2023-02-17","16:38:10","202847853","1","1","experiment","3","dispFeedback_noU","1000","1","46","DEV","POS","1","70","0.8427535972474698989","59.0596238307935763601","70","0.1962094679931666308","46","25","30","0","0","0","0","2","42","1","9","24","0","205","6209","358","5"
"6.6.1","mac","0","2023-02-17","16:38:10","202847853","1","1","experiment","3","experiment_noU","2951","1","20","DEV","POS","1","","","","","","20","25","30","0","0","0","0","2","42","1","9","24","0","205","6209","358","5"
"6.6.1","mac","0","2023-02-17","16:38:10","202847853","1","1","experiment","3","dispFeedback_noU","1000","1","20","DEV","POS","1","68","0.8438496736528476871","57.411356913282290293","68","0.5206837953349304771","20","25","30","0","0","0","0","2","42","2","9","24","0","201","6277","363","5"
"6.6.1","mac","0","2023-02-17","16:38:10","202847853","1","1","experiment","3","experiment_noU","2165","1","71","DEV","POS","1","","","","","","71","25","30","0","0","0","0","2","42","2","9","24","0","201","6277","363","5"
"6.6.1","mac","0","2023-02-17","16:38:10","202847853","1","1","experiment","3","dispFeedback_noU","1000","1","71","DEV","POS","1","76","0.4731294143910196315","35.9008675734840210225","76","0.9679870759062438879","71","25","30","0","0","0","0","2","42","3","9","24","0","1965","6353","369","6"
"6.6.1","mac","0","2023-02-17","16:38:10","202847853","1","1","experiment","3","experiment_noU","3071","1","80","DEV","POS","1","","","","","","80","25","30","0","0","0","0","2","42","3","9","24","0","1965","6353","369","6"
"6.6.1","mac","0","2023-02-17","16:38:10","202847853","1","1","experiment","3","dispFeedback_noU","1000","1","80","DEV","POS","1","82","0.3330230490802710275","27.3055119299582571557","82","0.8555257450452833368","80","25","30","0","0","0","0","2","42","4","9","24","0","3321","6435","375","6"
"6.6.1","mac","0","2023-02-17","16:38:10","202847853","1","1","experiment","3","experiment_noU","590","1","62","DEV","POS","1","","","","","","62","25","30","0","0","0","0","2","42","4","9","24","0","3321","6435","375","6"
"6.6.1","mac","0","2023-02-17","16:38:10","202847853","1","1","experiment","3","dispFeedback_noU","1000","1","62","DEV","POS","1","90","0.1924550482703174525","17.3933931629394784579","90","0.062519748011259299","62","25","30","0","0","0","0","2","42","5","9","24","0","4940","6525","382","7"
"6.6.1","mac","0","2023-02-17","16:38:10","202847853","1","1","experiment","3","experiment_noU","380","1","85","DEV","POS","1","","","","","","85","25","30","0","0","0","0","2","42","5","9","24","0","4940","6525","382","7"
"6.6.1","mac","0","2023-02-17","16:38:10","202847853","1","1","experiment","3","dispFeedback_noU","1000","1","85","DEV","POS","1","75","0.6726269109146348901","50.2128104758683946329","75","0.474151700146997257","85","25","30","0","0","0","0","2","42","6","9","24","0","880","6600","388","6"
"6.6.1","mac","0","2023-02-17","16:38:10","202847853","1","1","experiment","3","experiment_noU","530","1","10","DEV","POS","1","","","","","","10","25","30","0","0","0","0","2","42","6","9","24","0","880","6600","388","6"
"6.6.1","mac","0","2023-02-17","16:38:10","202847853","1","1","experiment","3","dispFeedback_noU","1000","1","10","DEV","POS","1","75","0.4320837524535522389","32.4048926282564906387","75","0.4750043511099658056","10","25","30","0","0","0","0","2","42","7","9","24","0","2280","6675","394","6"
"6.6.1","mac","0","2023-02-17","16:38:10","202847853","1","1","experiment","3","experiment_noU","1838","1","20","DEV","POS","1","","","","","","20","25","30","0","0","0","0","2","42","7","9","24","0","2280","6675","394","6"
"6.6.1","mac","0","2023-02-17","16:38:10","202847853","1","1","experiment","3","dispFeedback_noU","1000","1","20","DEV","POS","1","85","0.2731679706486998538","23.1478934331921379908","85","0.6352706168860361435","20","25","30","0","0","0","0","2","42","8","9","24","0","4088","6760","400","6"
"6.6.1","mac","0","2023-02-17","16:38:10","202847853","1","1","experiment","3","experiment_noU","843","1","47","DEV","POS","1","","","","","","47","25","30","0","0","0","0","2","42","8","9","24","0","4088","6760","400","6"
"6.6.1","mac","0","2023-02-17","16:38:10","202847853","1","1","experiment","3","dispFeedback_noU","1000","1","47","DEV","POS","1","82","0.242545897697353019","19.9988596709991135469","82","0.3177088003879666167","47","25","30","0","0","0","0","2","42","9","9","24","1","4443","6842","406","6"
"6.6.1","mac","0","2023-02-17","16:38:10","202847853","1","1","experiment","3","experiment_U","1023","1","31","DEV","POS","1","","","","","","31","25","30","0","0","0","0","2","42","9","9","24","1","4443","6842","406","6"
"6.6.1","mac","0","2023-02-17","16:38:10","202847853","1","1","experiment","3","dispFeedback_U","1000","1","31","DEV","POS","1","80","0.2942373956635586651","23.5888083082621022868","80","0.9201356146764325672","31","25","30","0","0","1","0","2","42","10","9","24","1","3823","6922","412","6"
"6.6.1","mac","0","2023-02-17","16:38:10","202847853","1","1","experiment","3","experiment_U","441","1","90","DEV","POS","1","","","","","","90","25","30","0","0","1","0","2","42","10","9","24","1","3823","6922","412","6"
"6.6.1","mac","0","2023-02-17","16:38:10","202847853","1","1","experiment","3","dispFeedback_U","1000","1","90","DEV","POS","1","78","0.6057058952184437572","47.516785964560881439","78","0.4660176919926930506","90","25","30","0","0","2","0","2","42","11","9","24","1","1191","7000","418","6"
"6.6.1","mac","0","2023-02-17","16:38:10","202847853","1","1","experiment","3","experiment_U","569","1","36","DEV","POS","1","","","","","","36","25","30","0","0","2","0","2","42","11","9","24","1","1191","7000","418","6"
"6.6.1","mac","0","2023-02-17","16:38:10","202847853","1","1","experiment","3","dispFeedback_U","1000","1","36","DEV","POS","1","86","0.3099572161268116521","26.5657485248855600446","86","0.41113957399761758","36","25","30","0","0","3","0","2","42","12","9","24","1","3619","7086","424","6"
"6.6.1","mac","0","2023-02-17","16:38:10","202847853","1","1","experiment","3","experiment_U","1070","1","45","DEV","POS","1","","","","","","45","25","30","0","0","3","0","2","42","12","9","24","1","3619","7086","424","6"
"6.6.1","mac","0","2023-02-17","16:38:10","202847853","1","1","experiment","3","dispFeedback_U","1000","1","45","DEV","POS","1","87","0.2306521270884195896","19.9970449962078014039","87","0.9380481615518332372","45","25","30","0","0","4","0","2","42","13","9","24","1","4570","7173","430","6"
"6.6.1","mac","0","2023-02-17","16:38:10","202847853","1","1","experiment","3","experiment_U","1727","1","90","DEV","POS","1","","","","","","90","25","30","0","0","4","0","2","42","13","9","24","1","4570","7173","430","6"
"6.6.1","mac","0","2023-02-17","16:38:10","202847853","1","1","experiment","3","dispFeedback_U","1000","1","90","DEV","POS","1","85","0.4096213997249107397","34.6690962369089632489","85","0.5230262776657534918","90","25","30","1","0","5","0","2","42","14","9","24","1","2477","7258","436","6"
"6.6.1","mac","0","2023-02-17","16:38:10","202847853","1","1","experiment","3","experiment_U","869","1","62","DEV","POS","1","","","","","","62","25","30","1","0","5","0","2","42","14","9","24","1","2477","7258","436","6"
"6.6.1","mac","0","2023-02-17","16:38:10","202847853","1","1","experiment","3","dispFeedback_U","1000","1","62","DEV","POS","1","64","0.8389243488373617774","53.8865112759330671111","64","0.8520683571351851393","62","25","30","2","0","6","0","2","42","15","9","24","1","219","7322","441","5"
"6.6.1","mac","0","2023-02-17","16:38:10","202847853","1","1","experiment","3","experiment_U","549","1","21","DEV","POS","1","","","","","","21","25","30","2","0","6","0","2","42","15","9","24","1","219","7322","441","5"
"6.6.1","mac","0","2023-02-17","16:38:10","202847853","1","1","experiment","3","dispFeedback_U","1000","1","21","DEV","POS","1","79","0.3727013897657306396","29.3480770719201586871","79","0.2949914213491118264","21","25","30","3","0","7","0","2","42","16","9","24","1","2849","7401","447","6"
"6.6.1","mac","0","2023-02-17","16:38:10","202847853","1","1","experiment","3","experiment_U","2084","1","61","DEV","POS","1","","","","","","61","25","30","3","0","7","0","2","42","16","9","24","1","2849","7401","447","6"
"6.6.1","mac","0","2023-02-17","16:38:10","202847853","1","1","experiment","3","dispFeedback_U","1000","1","61","DEV","POS","1","75","0.5681374971510796401","42.8491823045072166565","75","0.158000651085283772","61","25","30","3","0","8","0","2","42","17","9","24","1","1384","7476","453","6"
"6.6.1","mac","0","2023-02-17","16:38:10","202847853","1","1","experiment","3","experiment_U","774","1","10","DEV","POS","1","","","","","","10","25","30","3","0","8","0","2","42","17","9","24","1","1384","7476","453","6"
"6.6.1","mac","0","2023-02-17","16:38:10","202847853","1","1","experiment","3","dispFeedback_U","1000","1","10","DEV","POS","1","84","0.4045867612470921415","33.8978086144980750305","84","0.3573356029478217399","10","25","30","4","0","9","0","2","42","18","9","24","0","2524","7560","459","6"
"6.6.1","mac","0","2023-02-17","16:38:10","202847853","1","1","experiment","3","experiment_noU","410","1","1","DEV","POS","1","","","","","","1","25","30","4","0","9","0","2","42","18","9","24","0","2524","7560","459","6"
"6.6.1","mac","0","2023-02-17","16:38:10","202847853","1","1","experiment","3","dispFeedback_noU","1000","1","1","DEV","POS","1","83","0.5115692191509052522","42.3956955209402508444","83","0.3595786679907652106","1","25","30","4","0","9","0","2","42","19","9","24","0","1710","7643","465","6"
"6.6.1","mac","0","2023-02-17","16:38:10","202847853","1","1","experiment","3","experiment_noU","2219","1","82","DEV","POS","1","","","","","","82","25","30","4","0","9","0","2","42","19","9","24","0","1710","7643","465","6"
"6.6.1","mac","0","2023-02-17","16:38:10","202847853","1","1","experiment","3","dispFeedback_noU","1000","1","82","DEV","POS","1","84","0.3998752065691393298","33.5584846634151503508","84","0.5409492586136211978","82","25","30","4","0","9","0","2","42","20","9","24","0","2569","7727","471","6"
"6.6.1","mac","0","2023-02-17","16:38:10","202847853","1","1","experiment","3","experiment_noU","378","1","44","DEV","POS","1","","","","","","44","25","30","4","0","9","0","2","42","20","9","24","0","2569","7727","471","6"
"6.6.1","mac","0","2023-02-17","16:38:10","202847853","1","1","experiment","3","dispFeedback_noU","1000","1","44","DEV","POS","1","89","0.2938486575986370419","26.2055279531945437554","89","0.6076900890580587689","44","25","30","4","0","9","0","2","42","21","9","24","0","3828","7816","478","7"
"6.6.1","mac","0","2023-02-17","16:38:10","202847853","1","1","experiment","3","experiment_noU","345","1","57","DEV","POS","1","","","","","","57","25","30","4","0","9","0","2","42","21","9","24","0","3828","7816","478","7"
"6.6.1","mac","0","2023-02-17","16:38:10","202847853","1","1","experiment","3","dispFeedback_noU","1000","1","57","DEV","POS","1","87","0.2423628978521892297","21.196527418938668319","87","0.9974337485612914111","57","25","30","4","0","9","0","2","42","22","9","24","0","4445","7903","484","6"
"6.6.1","mac","0","2023-02-17","16:38:10","202847853","1","1","experiment","3","experiment_noU","828","1","24","DEV","POS","1","","","","","","24","25","30","4","0","9","0","2","42","22","9","24","0","4445","7903","484","6"
"6.6.1","mac","0","2023-02-17","16:38:10","202847853","1","1","experiment","3","dispFeedback_noU","1000","1","24","DEV","POS","1","79","0.3364260890818135952","26.5390879676774282814","79","0.2191207015931421753","24","25","30","4","0","9","0","2","42","23","9","24","0","3278","7982","490","6"
"6.6.1","mac","0","2023-02-17","16:38:10","202847853","1","1","experiment","3","experiment_noU","354","1","49","DEV","POS","1","","","","","","49","25","30","4","0","9","0","2","42","23","9","24","0","3278","7982","490","6"
"6.6.1","mac","0","2023-02-17","16:38:10","202847853","1","1","experiment","3","dispFeedback_noU","1000","1","49","DEV","POS","1","82","0.2759369082605520607","22.5350544088976931789","82","0.9159243311537254018","49","25","30","4","0","9","0","2","42","24","9","24","2","4054","8064","496","6"
"6.6.1","mac","0","2023-02-17","16:38:10","202847853","1","1","experiment","3","experiment_U","859","1","99","DEV","POS","1","","","","","","99","25","30","4","0","9","0","2","42","24","9","24","2","4054","8064","496","6"
"6.6.1","mac","0","2023-02-17","16:38:10","202847853","1","1","experiment","3","dispFeedback_U","1000","1","99","DEV","POS","1","82","0.4601703137438030167","37.8380726994475935498","82","0.3138825435456546464","99","25","30","4","1","9","1","2","42","25","9","24","2","2059","8146","502","6"
"6.6.1","mac","0","2023-02-17","16:38:10","202847853","1","1","experiment","3","experiment_U","870","1","29","DEV","POS","1","","","","","","29","25","30","4","1","9","1","2","42","25","9","24","2","2059","8146","502","6"
"6.6.1","mac","0","2023-02-17","16:38:10","202847853","1","1","experiment","3","dispFeedback_U","1000","1","29","DEV","POS","1","88","0.3137168959687826608","27.4796208664902650298","88","0.4624808515567520595","29","25","30","4","1","9","2","2","42","26","9","24","2","3570","8234","508","6"
"6.6.1","mac","0","2023-02-17","16:38:10","202847853","1","1","experiment","3","experiment_U","766","1","0","DEV","POS","1","","","","","","0","25","30","4","1","9","2","2","42","26","9","24","2","3570","8234","508","6"
"6.6.1","mac","0","2023-02-17","16:38:10","202847853","1","1","experiment","3","dispFeedback_U","1000","1","0","DEV","POS","1","83","0.4660204076177583143","38.7119214208026463098","83","0.6790682942790603471","0","25","30","4","2","9","3","2","42","27","9","24","2","2016","8317","514","6"
"6.6.1","mac","0","2023-02-17","16:38:10","202847853","1","1","experiment","3","experiment_U","645","1","93","DEV","POS","1","","","","","","93","25","30","4","2","9","3","2","42","27","9","24","2","2016","8317","514","6"
"6.6.1","mac","0","2023-02-17","16:38:10","202847853","1","1","experiment","3","dispFeedback_U","1000","1","93","DEV","POS","1","74","0.539130279211242347","39.9843858195831245439","74","0.6131125038054567877","93","25","30","4","2","9","4","2","42","28","9","24","2","1545","8391","519","5"
"6.6.1","mac","0","2023-02-17","16:38:10","202847853","1","1","experiment","3","experiment_U","1065","1","100","DEV","POS","1","","","","","","100","25","30","4","2","9","4","2","42","28","9","24","2","1545","8391","519","5"
"6.6.1","mac","0","2023-02-17","16:38:10","202847853","1","1","experiment","3","dispFeedback_U","1000","1","100","DEV","POS","1","75","0.4279246907755813734","32.1429431239342662252","75","0.2925166614103402729","100","25","30","4","3","9","5","2","42","29","9","24","2","2315","8466","525","6"
"6.6.1","mac","0","2023-02-17","16:38:10","202847853","1","1","experiment","3","experiment_U","397","1","49","DEV","POS","1","","","","","","49","25","30","4","3","9","5","2","42","29","9","24","2","2315","8466","525","6"
"6.6.1","mac","0","2023-02-17","16:38:10","202847853","1","1","experiment","3","dispFeedback_U","1000","1","49","DEV","POS","1","82","0.2724310553506416044","22.2732711146799537971","82","0.8631624600065784803","49","25","30","4","3","9","6","2","42","30","9","24","2","4097","8548","531","6"
"6.6.1","mac","0","2023-02-17","16:38:10","202847853","1","1","experiment","3","experiment_U","413","1","90","DEV","POS","1","","","","","","90","25","30","4","3","9","6","2","42","30","9","24","2","4097","8548","531","6"
"6.6.1","mac","0","2023-02-17","16:38:10","202847853","1","1","experiment","3","dispFeedback_U","1000","1","90","DEV","POS","1","73","0.611410005664593692","44.8160071774066821604","73","0.93893072450042947","90","25","30","4","3","9","7","2","42","31","9","24","2","1163","8621","536","5"
"6.6.1","mac","0","2023-02-17","16:38:10","202847853","1","1","experiment","3","experiment_U","1113","1","57","DEV","POS","1","","","","","","57","25","30","4","3","9","7","2","42","31","9","24","2","1163","8621","536","5"
"6.6.1","mac","0","2023-02-17","16:38:10","202847853","1","1","experiment","3","dispFeedback_U","1000","1","57","DEV","POS","1","71","0.8405641137428708776","59.8207278821439842886","71","0.1821554517797556449","57","25","30","4","4","9","8","2","42","32","9","24","0","213","8692","541","5"
"6.6.1","mac","0","2023-02-17","16:38:10","202847853","1","1","experiment","3","experiment_noU","1301","1","62","DEV","POS","1","","","","","","62","25","30","4","4","9","8","2","42","32","9","24","0","213","8692","541","5"
"6.6.1","mac","0","2023-02-17","16:38:10","202847853","1","1","experiment","3","dispFeedback_noU","1000","1","62","DEV","POS","1","70","0.7267590913165363764","50.9356401301672434556","70","0.1851481630432298686","62","25","30","4","4","9","8","2","42","33","9","24","0","651","8762","546","5"
"6.6.1","mac","0","2023-02-17","16:38:10","202847853","1","1","experiment","3","experiment_noU","1511","1","97","DEV","POS","1","","","","","","97","25","30","4","4","9","8","2","42","33","9","24","0","651","8762","546","5"
"6.6.1","mac","0","2023-02-17","16:38:10","202847853","1","1","experiment","3","dispFeedback_noU","1000","1","97","DEV","POS","1","80","0.3955702950865188638","31.665424026567812632","80","0.3133207446228062354","97","25","30","4","4","9","8","2","42","34","9","24","0","2611","8842","552","6"
"6.6.1","mac","0","2023-02-17","16:38:10","202847853","1","1","experiment","3","experiment_noU","656","1","38","DEV","POS","1","","","","","","38","25","30","4","4","9","8","2","42","34","9","24","0","2611","8842","552","6"
"6.6.1","mac","0","2023-02-17","16:38:10","202847853","1","1","experiment","3","dispFeedback_noU","1000","1","38","DEV","POS","1","82","0.2955573397187932772","24.2746123383163237008","82","0.8674533571739340143","38","25","30","4","4","9","8","2","42","35","9","24","0","3806","8924","558","6"
"6.6.1","mac","0","2023-02-17","16:38:10","202847853","1","1","experiment","3","experiment_noU","1433","1","37","DEV","POS","1","","","","","","37","25","30","4","4","9","8","2","42","35","9","24","0","3806","8924","558","6"
"6.6.1","mac","0","2023-02-17","16:38:10","202847853","1","1","experiment","3","dispFeedback_noU","1000","1","37","DEV","POS","1","86","0.2341759479132980437","20.0518775772733164331","86","0.0784098869372182317","37","25","30","4","4","9","8","2","42","36","9","24","0","4533","9010","564","6"
"6.6.1","mac","0","2023-02-17","16:38:10","202847853","1","1","experiment","3","experiment_noU","686","1","89","DEV","POS","1","","","","","","89","25","30","4","4","9","8","2","42","36","9","24","0","4533","9010","564","6"
"6.6.1","mac","0","2023-02-17","16:38:10","202847853","1","1","experiment","3","dispFeedback_noU","1000","1","89","DEV","POS","1","74","0.5677641864047993092","42.2587090355209511472","74","0.6542068982157406287","89","25","30","4","4","9","8","2","42","37","9","24","0","1386","9084","569","5"
"6.6.1","mac","0","2023-02-17","16:38:10","202847853","1","1","experiment","3","experiment_noU","402","1","63","DEV","POS","1","","","","","","63","25","30","4","4","9","8","2","42","37","9","24","0","1386","9084","569","5"
"6.6.1","mac","0","2023-02-17","16:38:10","202847853","1","1","experiment","3","dispFeedback_noU","1000","1","63","DEV","POS","1","83","0.2073613772345724304","17.2376753775397766333","83","0.435321286422042486","63","25","30","4","4","9","8","2","42","38","9","24","0","4802","9167","575","6"
"6.6.1","mac","0","2023-02-17","16:38:10","202847853","1","1","experiment","3","experiment_noU","392","1","89","DEV","POS","1","","","","","","89","25","30","4","4","9","8","2","42","38","9","24","0","4802","9167","575","6"
"6.6.1","mac","0","2023-02-17","16:38:10","202847853","1","1","experiment","3","dispFeedback_noU","1000","1","89","DEV","POS","1","75","0.6261610147504307333","46.906270091521598431","75","0.5830176047941245665","89","25","30","4","4","9","8","2","42","39","9","24","0","1092","9242","581","6"
"6.6.1","mac","0","2023-02-17","16:38:10","202847853","1","1","experiment","3","experiment_noU","1218","1","98","DEV","POS","1","","","","","","98","25","30","4","4","9","8","2","42","39","9","24","0","1092","9242","581","6"
"6.6.1","mac","0","2023-02-17","16:38:10","202847853","1","1","experiment","3","dispFeedback_noU","1000","1","98","DEV","POS","1","82","0.4217684218648398708","34.7064004477332659349","82","0.115134632707371995","98","25","30","4","4","9","8","2","42","40","9","24","0","2368","9324","587","6"
"6.6.1","mac","0","2023-02-17","16:38:10","202847853","1","1","experiment","3","experiment_noU","1807","1","92","DEV","POS","1","","","","","","92","25","30","4","4","9","8","2","42","40","9","24","0","2368","9324","587","6"
"6.6.1","mac","0","2023-02-17","16:38:10","202847853","1","1","experiment","3","dispFeedback_noU","1000","1","92","DEV","POS","1","79","0.3909539539850626078","30.9588734249810855204","79","0.7593349960537941756","92","25","30","4","4","9","8","2","42","41","9","24","0","2657","9403","593","6"
"6.6.1","mac","0","2023-02-17","16:38:10","202847853","1","1","experiment","3","experiment_noU","555","1","98","DEV","POS","1","","","","","","98","25","30","4","4","9","8","2","42","41","9","24","0","2657","9403","593","6"
"6.6.1","mac","0","2023-02-17","16:38:10","202847853","1","1","experiment","3","dispFeedback_noU","1000","1","98","DEV","POS","1","82","0.5123727241112016051","41.939271140594847509","82","0.3618614760604364489","98","25","30","4","4","9","8","2","42","42","9","24","0","1705","9485","599","6"
"6.6.1","mac","0","2023-02-17","16:38:10","202847853","1","1","experiment","4","experiment_noU","1035","1","38","IEV","POS","1","","","","","","38","40","15","0","0","0","0","3","42","0","8","31","0","1705","9485","599","6"
"6.6.1","mac","0","2023-02-17","16:38:10","202847853","1","1","experiment","4","dispFeedback_noU","1000","1","38","IEV","POS","1","163","0.3391546887759843143","55.2747569502278821574","163","0.6254995180353288831","38","40","15","0","0","0","0","3","42","1","8","31","0","4185","9648","609","10"
"6.6.1","mac","0","2023-02-17","16:38:10","202847853","1","1","experiment","4","experiment_noU","2634","1","14","IEV","POS","1","","","","","","14","40","15","0","0","0","0","3","42","1","8","31","0","4185","9648","609","10"
"6.6.1","mac","0","2023-02-17","16:38:10","202847853","1","1","experiment","4","dispFeedback_noU","1000","1","14","IEV","POS","1","218","0.260979969230239528","56.9302788489546074402","218","0.6437219885745369963","14","40","15","0","0","0","0","3","42","2","8","31","0","4584","9866","619","10"
"6.6.1","mac","0","2023-02-17","16:38:10","202847853","1","1","experiment","4","experiment_noU","4464","1","79","IEV","POS","1","","","","","","79","40","15","0","0","0","0","3","42","2","8","31","0","4584","9866","619","10"
"6.6.1","mac","0","2023-02-17","16:38:10","202847853","1","1","experiment","4","dispFeedback_noU","1000","1","79","IEV","POS","1","233","0.2459580104000667622","57.2470379164171774278","233","0.4841203574287054057","79","40","15","0","0","0","0","3","42","3","8","31","0","4664","10099","629","10"
"6.6.1","mac","0","2023-02-17","16:38:10","202847853","1","1","experiment","4","experiment_noU","491","1","59","IEV","POS","1","","","","","","59","40","15","0","0","0","0","3","42","3","8","31","0","4664","10099","629","10"
"6.6.1","mac","0","2023-02-17","16:38:10","202847853","1","1","experiment","4","dispFeedback_noU","1000","1","59","IEV","POS","1","232","0.2409438994638211373","55.9024135119982545916","232","0.2715301442126580866","59","40","15","0","0","0","0","3","42","4","8","31","0","4691","10331","639","10"
"6.6.1","mac","0","2023-02-17","16:38:10","202847853","1","1","experiment","4","experiment_noU","3546","1","99","IEV","POS","1","","","","","","99","40","15","0","0","0","0","3","42","4","8","31","0","4691","10331","639","10"
"6.6.1","mac","0","2023-02-17","16:38:10","202847853","1","1","experiment","4","dispFeedback_noU","1000","1","99","IEV","POS","1","245","0.2308198546451308009","56.6217183742799079482","245","0.8158791267350035126","99","40","15","0","0","0","0","3","42","5","8","31","0","4746","10576","649","10"
"6.6.1","mac","0","2023-02-17","16:38:10","202847853","1","1","experiment","4","experiment_noU","2142","1","26","IEV","POS","1","","","","","","26","40","15","0","0","0","0","3","42","5","8","31","0","4746","10576","649","10"
"6.6.1","mac","0","2023-02-17","16:38:10","202847853","1","1","experiment","4","dispFeedback_noU","1000","1","26","IEV","POS","1","234","0.2407587441745276391","56.3887283055541672638","234","0.8451129493408633397","26","40","15","0","0","0","0","3","42","6","8","31","0","4692","10810","659","10"
"6.6.1","mac","0","2023-02-17","16:38:10","202847853","1","1","experiment","4","experiment_noU","3702","1","93","IEV","POS","1","","","","","","93","40","15","0","0","0","0","3","42","6","8","31","0","4692","10810","659","10"
"6.6.1","mac","0","2023-02-17","16:38:10","202847853","1","1","experiment","4","dispFeedback_noU","1000","1","93","IEV","POS","1","222","0.2575788700751458493","57.2614282902792979257","222","0.9454799620307702268","93","40","15","0","0","0","0","3","42","7","8","31","0","4602","11032","669","10"
"6.6.1","mac","0","2023-02-17","16:38:10","202847853","1","1","experiment","4","experiment_noU","2767","1","14","IEV","POS","1","","","","","","14","40","15","0","0","0","0","3","42","7","8","31","0","4602","11032","669","10"
"6.6.1","mac","0","2023-02-17","16:38:10","202847853","1","1","experiment","4","dispFeedback_noU","1000","1","14","IEV","POS","1","244","0.2361428155309596433","57.6787824517941913882","244","0.302714868053494679","14","40","15","0","0","0","0","3","42","8","8","31","1","4717","11276","679","10"
"6.6.1","mac","0","2023-02-17","16:38:10","202847853","1","1","experiment","4","experiment_U","2596","1","17","IEV","POS","1","","","","","","17","40","15","0","0","0","0","3","42","8","8","31","1","4717","11276","679","10"
"6.6.1","mac","0","2023-02-17","16:38:10","202847853","1","1","experiment","4","dispFeedback_U","1000","1","17","IEV","POS","1","236","0.2400185200575644662","56.6464135835921993589","236","0.8839325294559664536","17","40","15","1","0","1","0","3","42","9","8","31","1","4696","11512","689","10"
"6.6.1","mac","0","2023-02-17","16:38:10","202847853","1","1","experiment","4","experiment_U","556","1","58","IEV","POS","1","","","","","","58","40","15","1","0","1","0","3","42","9","8","31","1","4696","11512","689","10"
"6.6.1","mac","0","2023-02-17","16:38:10","202847853","1","1","experiment","4","dispFeedback_U","1000","1","58","IEV","POS","1","242","0.2381707467372903841","57.6411278943493172733","242","0.0424731490301138576","58","40","15","2","0","2","0","3","42","10","8","31","1","4706","11754","699","10"
"6.6.1","mac","0","2023-02-17","16:38:10","202847853","1","1","experiment","4","experiment_U","4369","1","81","IEV","POS","1","","","","","","81","40","15","2","0","2","0","3","42","10","8","31","1","4706","11754","699","10"
"6.6.1","mac","0","2023-02-17","16:38:10","202847853","1","1","experiment","4","dispFeedback_U","1000","1","81","IEV","POS","1","229","0.2450273102165191341","56.0408324602932097491","229","0.1452929627022922499","81","40","15","3","0","3","0","3","42","11","8","31","1","4669","11983","709","10"
"6.6.1","mac","0","2023-02-17","16:38:10","202847853","1","1","experiment","4","experiment_U","2829","1","13","IEV","POS","1","","","","","","13","40","15","3","0","3","0","3","42","11","8","31","1","4669","11983","709","10"
"6.6.1","mac","0","2023-02-17","16:38:10","202847853","1","1","experiment","4","dispFeedback_U","1000","1","13","IEV","POS","1","242","0.2339360788422114867","56.5496459385070124881","242","0.3769658611568076911","13","40","15","4","0","4","0","3","42","12","8","31","0","4729","12225","719","10"
"6.6.1","mac","0","2023-02-17","16:38:10","202847853","1","1","experiment","4","experiment_noU","390","1","67","IEV","POS","1","","","","","","67","40","15","4","0","4","0","3","42","12","8","31","0","4729","12225","719","10"
"6.6.1","mac","0","2023-02-17","16:38:10","202847853","1","1","experiment","4","dispFeedback_noU","1000","1","67","IEV","POS","1","306","0.1874368185212458293","57.347267809228412716","306","0.8112754574537452967","67","40","15","4","0","4","0","3","42","13","8","31","0","4990","12531","729","10"
"6.6.1","mac","0","2023-02-17","16:38:10","202847853","1","1","experiment","4","experiment_noU","1682","1","37","IEV","POS","1","","","","","","37","40","15","4","0","4","0","3","42","13","8","31","0","4990","12531","729","10"
"6.6.1","mac","0","2023-02-17","16:38:10","202847853","1","1","experiment","4","dispFeedback_noU","1000","1","37","IEV","POS","1","260","0.2242598613247558104","58.3403549757112216412","260","0.558559503769166632","37","40","15","4","0","4","0","3","42","14","8","31","0","4782","12791","739","10"
"6.6.1","mac","0","2023-02-17","16:38:10","202847853","1","1","experiment","4","experiment_noU","1817","1","30","IEV","POS","1","","","","","","30","40","15","4","0","4","0","3","42","14","8","31","0","4782","12791","739","10"
"6.6.1","mac","0","2023-02-17","16:38:10","202847853","1","1","experiment","4","dispFeedback_noU","1000","1","30","IEV","POS","1","215","0.26420315895364338","56.8595510412785500876","215","0.1059975554482074367","30","40","15","4","0","4","0","3","42","15","8","31","0","4567","13006","749","10"
"6.6.1","mac","0","2023-02-17","16:38:10","202847853","1","1","experiment","4","experiment_noU","3473","1","99","IEV","POS","1","","","","","","99","40","15","4","0","4","0","3","42","15","8","31","0","4567","13006","749","10"
"6.6.1","mac","0","2023-02-17","16:38:10","202847853","1","1","experiment","4","dispFeedback_noU","1000","1","99","IEV","POS","1","233","0.2442834548942706685","57.0367581449969591745","233","0.0118682119091665858","99","40","15","4","0","4","0","3","42","16","8","31","0","4673","13239","759","10"
"6.6.1","mac","0","2023-02-17","16:38:10","202847853","1","1","experiment","4","experiment_noU","4003","1","86","IEV","POS","1","","","","","","86","40","15","4","0","4","0","3","42","16","8","31","0","4673","13239","759","10"
"6.6.1","mac","0","2023-02-17","16:38:10","202847853","1","1","experiment","4","dispFeedback_noU","1000","1","86","IEV","POS","1","214","0.2668655119433220868","57.0672559503853449314","214","0.0941436216454356045","86","40","15","4","0","4","0","3","42","17","8","31","0","4553","13453","769","10"
"6.6.1","mac","0","2023-02-17","16:38:10","202847853","1","1","experiment","4","experiment_noU","3345","1","98","IEV","POS","1","","","","","","98","40","15","4","0","4","0","3","42","17","8","31","0","4553","13453","769","10"
"6.6.1","mac","0","2023-02-17","16:38:10","202847853","1","1","experiment","4","dispFeedback_noU","1000","1","98","IEV","POS","1","205","0.2779702125186639394","57.1023340006266764135","205","0.5291443803648334665","98","40","15","4","0","4","0","3","42","18","8","31","0","4495","13658","779","10"
"6.6.1","mac","0","2023-02-17","16:38:10","202847853","1","1","experiment","4","experiment_noU","3863","1","86","IEV","POS","1","","","","","","86","40","15","4","0","4","0","3","42","18","8","31","0","4495","13658","779","10"
"6.6.1","mac","0","2023-02-17","16:38:10","202847853","1","1","experiment","4","dispFeedback_noU","1000","1","86","IEV","POS","1","187","0.2938677539390882609","54.9868849226569338384","187","0.0979388489150299774","86","40","15","4","0","4","0","3","42","19","8","31","0","4413","13845","789","10"
"6.6.1","mac","0","2023-02-17","16:38:10","202847853","1","1","experiment","4","experiment_noU","1475","1","33","IEV","POS","1","","","","","","33","40","15","4","0","4","0","3","42","19","8","31","0","4413","13845","789","10"
"6.6.1","mac","0","2023-02-17","16:38:10","202847853","1","1","experiment","4","dispFeedback_noU","1000","1","33","IEV","POS","1","183","0.3013094859750999333","55.0703621864428356503","183","0.2456495329378288184","33","40","15","4","0","4","0","3","42","20","8","31","0","4375","14028","799","10"
"6.6.1","mac","0","2023-02-17","16:38:10","202847853","1","1","experiment","4","experiment_noU","339","1","62","IEV","POS","1","","","","","","62","40","15","4","0","4","0","3","42","20","8","31","0","4375","14028","799","10"
"6.6.1","mac","0","2023-02-17","16:38:10","202847853","1","1","experiment","4","dispFeedback_noU","1000","1","62","IEV","POS","1","232","0.2413143289996741159","55.8928062826959077825","232","0.2746898572134529037","62","40","15","4","0","4","0","3","42","21","8","31","0","4689","14260","809","10"
"6.6.1","mac","0","2023-02-17","16:38:10","202847853","1","1","experiment","4","experiment_noU","3661","1","95","IEV","POS","1","","","","","","95","40","15","4","0","4","0","3","42","21","8","31","0","4689","14260","809","10"
"6.6.1","mac","0","2023-02-17","16:38:10","202847853","1","1","experiment","4","dispFeedback_noU","1000","1","95","IEV","POS","1","229","0.2465168992918969904","56.4960802681811671278","229","0.1329945903581088718","95","40","15","4","0","4","0","3","42","22","8","31","0","4661","14489","819","10"
"6.6.1","mac","0","2023-02-17","16:38:10","202847853","1","1","experiment","4","experiment_noU","429","1","64","IEV","POS","1","","","","","","64","40","15","4","0","4","0","3","42","22","8","31","0","4661","14489","819","10"
"6.6.1","mac","0","2023-02-17","16:38:10","202847853","1","1","experiment","4","dispFeedback_noU","1000","1","64","IEV","POS","1","277","0.2068546311946695138","57.3534192947425864872","277","0.2987089418570298971","64","40","15","4","0","4","0","3","42","23","8","31","0","4879","14766","829","10"
"6.6.1","mac","0","2023-02-17","16:38:10","202847853","1","1","experiment","4","experiment_noU","3013","1","6","IEV","POS","1","","","","","","6","40","15","4","0","4","0","3","42","23","8","31","0","4879","14766","829","10"
"6.6.1","mac","0","2023-02-17","16:38:10","202847853","1","1","experiment","4","dispFeedback_noU","1000","1","6","IEV","POS","1","209","0.2649631011246256773","55.2529539099260205148","209","0.4666518577064042717","6","40","15","4","0","4","0","3","42","24","8","31","0","4563","14975","839","10"
"6.6.1","mac","0","2023-02-17","16:38:10","202847853","1","1","experiment","4","experiment_noU","2703","1","12","IEV","POS","1","","","","","","12","40","15","4","0","4","0","3","42","24","8","31","0","4563","14975","839","10"
"6.6.1","mac","0","2023-02-17","16:38:10","202847853","1","1","experiment","4","dispFeedback_noU","1000","1","12","IEV","POS","1","214","0.2668655119433220868","57.0672559503853449314","214","0.1367786687651599553","12","40","15","4","0","4","0","3","42","25","8","31","0","4553","15189","849","10"
"6.6.1","mac","0","2023-02-17","16:38:10","202847853","1","1","experiment","4","experiment_noU","2042","1","30","IEV","POS","1","","","","","","30","40","15","4","0","4","0","3","42","25","8","31","0","4553","15189","849","10"
"6.6.1","mac","0","2023-02-17","16:38:10","202847853","1","1","experiment","4","dispFeedback_noU","1000","1","30","IEV","POS","1","256","0.2224471557422136592","57.0334150274156996829","256","0.5388809334344418778","30","40","15","4","0","4","0","3","42","26","8","31","0","4792","15445","859","10"
"6.6.1","mac","0","2023-02-17","16:38:10","202847853","1","1","experiment","4","experiment_noU","2425","1","19","IEV","POS","1","","","","","","19","40","15","4","0","4","0","3","42","26","8","31","0","4792","15445","859","10"
"6.6.1","mac","0","2023-02-17","16:38:10","202847853","1","1","experiment","4","dispFeedback_noU","1000","1","19","IEV","POS","1","224","0.2532507494449515173","56.8426502410055292103","224","0.1337992076607884828","19","40","15","4","0","4","0","3","42","27","8","31","0","4625","15669","869","10"
"6.6.1","mac","0","2023-02-17","16:38:10","202847853","1","1","experiment","4","experiment_noU","391","1","58","IEV","POS","1","","","","","","58","40","15","4","0","4","0","3","42","27","8","31","0","4625","15669","869","10"
"6.6.1","mac","0","2023-02-17","16:38:10","202847853","1","1","experiment","4","dispFeedback_noU","1000","1","58","IEV","POS","1","208","0.2691531933473333971","55.9415606387336907801","208","0.3312042633377025314","58","40","15","4","0","4","0","3","42","28","8","31","0","4541","15877","879","10"
"6.6.1","mac","0","2023-02-17","16:38:10","202847853","1","1","experiment","4","experiment_noU","1819","1","29","IEV","POS","1","","","","","","29","40","15","4","0","4","0","3","42","28","8","31","0","4541","15877","879","10"
"6.6.1","mac","0","2023-02-17","16:38:10","202847853","1","1","experiment","4","dispFeedback_noU","1000","1","29","IEV","POS","1","207","0.2733606956938288146","56.6532462563008039069","207","0.0874104825983314099","29","40","15","4","0","4","0","3","42","29","8","31","0","4519","16084","889","10"
"6.6.1","mac","0","2023-02-17","16:38:10","202847853","1","1","experiment","4","experiment_noU","633","1","52","IEV","POS","1","","","","","","52","40","15","4","0","4","0","3","42","29","8","31","0","4519","16084","889","10"
"6.6.1","mac","0","2023-02-17","16:38:10","202847853","1","1","experiment","4","dispFeedback_noU","1000","1","52","IEV","POS","1","200","0.2802824902520179573","55.9314674696278260058","200","0.8261033889898339311","52","40","15","4","0","4","0","3","42","30","8","31","0","4483","16284","899","10"
"6.6.1","mac","0","2023-02-17","16:38:10","202847853","1","1","experiment","4","experiment_noU","3947","1","88","IEV","POS","1","","","","","","88","40","15","4","0","4","0","3","42","30","8","31","0","4483","16284","899","10"
"6.6.1","mac","0","2023-02-17","16:38:10","202847853","1","1","experiment","4","dispFeedback_noU","1000","1","88","IEV","POS","1","220","0.2585224054440813934","56.983548501604026626","220","0.9482563023800627544","88","40","15","4","0","4","0","3","42","31","8","31","2","4597","16504","909","10"
"6.6.1","mac","0","2023-02-17","16:38:10","202847853","1","1","experiment","4","experiment_U","4061","1","87","IEV","POS","1","","","","","","87","40","15","4","0","4","0","3","42","31","8","31","2","4597","16504","909","10"
"6.6.1","mac","0","2023-02-17","16:38:10","202847853","1","1","experiment","4","dispFeedback_U","1000","1","87","IEV","POS","1","227","0.2465168992918969904","56.0030464695973719813","227","0.1138961811349485514","87","40","15","4","0","4","1","3","42","32","8","31","2","4661","16731","919","10"
"6.6.1","mac","0","2023-02-17","16:38:10","202847853","1","1","experiment","4","experiment_U","4297","1","79","IEV","POS","1","","","","","","79","40","15","4","0","4","1","3","42","32","8","31","2","4661","16731","919","10"
"6.6.1","mac","0","2023-02-17","16:38:10","202847853","1","1","experiment","4","dispFeedback_U","1000","1","79","IEV","POS","1","204","0.2775853173561962928","56.5553930165362359617","204","0.6394075219611189409","79","40","15","4","0","4","2","3","42","33","8","31","2","4497","16935","929","10"
"6.6.1","mac","0","2023-02-17","16:38:10","202847853","1","1","experiment","4","experiment_U","3621","1","94","IEV","POS","1","","","","","","94","40","15","4","0","4","2","3","42","33","8","31","2","4497","16935","929","10"
"6.6.1","mac","0","2023-02-17","16:38:10","202847853","1","1","experiment","4","dispFeedback_U","1000","1","94","IEV","POS","1","213","0.2634438033934720647","56.0859707216959861853","213","0.8150405205821247279","94","40","15","4","0","4","3","3","42","34","8","31","2","4571","17148","939","10"
"6.6.1","mac","0","2023-02-17","16:38:10","202847853","1","1","experiment","4","experiment_U","978","1","61","IEV","POS","1","","","","","","61","40","15","4","0","4","3","3","42","34","8","31","2","4571","17148","939","10"
"6.6.1","mac","0","2023-02-17","16:38:10","202847853","1","1","experiment","4","dispFeedback_U","1000","1","61","IEV","POS","1","15","0.8976620489800135605","13.6111038151966265985","15","0.8989088237050242292","61","40","15","4","1","4","4","3","42","35","8","31","2","278","17163","940","1"
"6.6.1","mac","0","2023-02-17","16:38:10","202847853","1","1","experiment","4","experiment_U","4133","1","82","IEV","POS","1","","","","","","82","40","15","4","1","4","4","3","42","35","8","31","2","278","17163","940","1"
"6.6.1","mac","0","2023-02-17","16:38:10","202847853","1","1","experiment","4","dispFeedback_U","1000","1","82","IEV","POS","1","200","0.2802824902520179573","55.9314674696278260058","200","0.8339054346629197756","82","40","15","4","1","4","5","3","42","36","8","31","2","4483","17363","950","10"
"6.6.1","mac","0","2023-02-17","16:38:10","202847853","1","1","experiment","4","experiment_U","3805","1","91","IEV","POS","1","","","","","","91","40","15","4","1","4","5","3","42","36","8","31","2","4483","17363","950","10"
"6.6.1","mac","0","2023-02-17","16:38:10","202847853","1","1","experiment","4","dispFeedback_U","1000","1","91","IEV","POS","1","222","0.2570131993632557288","57.0159801537358319479","222","0.7245755551207287981","91","40","15","4","1","4","6","3","42","37","8","31","2","4605","17585","960","10"
"6.6.1","mac","0","2023-02-17","16:38:10","202847853","1","1","experiment","4","experiment_U","4644","1","72","IEV","POS","1","","","","","","72","40","15","4","1","4","6","3","42","37","8","31","2","4605","17585","960","10"
"6.6.1","mac","0","2023-02-17","16:38:10","202847853","1","1","experiment","4","dispFeedback_U","1000","1","72","IEV","POS","1","200","0.2781627121629031141","55.7073992184435553554","200","0.615931600475667862","72","40","15","4","1","4","7","3","42","38","8","31","2","4494","17785","970","10"
"6.6.1","mac","0","2023-02-17","16:38:10","202847853","1","1","experiment","4","experiment_U","1803","1","28","IEV","POS","1","","","","","","28","40","15","4","1","4","7","3","42","38","8","31","2","4494","17785","970","10"
"6.6.1","mac","0","2023-02-17","16:38:10","202847853","1","1","experiment","4","dispFeedback_U","1000","1","28","IEV","POS","1","194","0.2860847193050458648","55.4951281216607554825","194","0.7218498386726365235","28","40","15","4","1","4","8","3","42","39","8","31","2","4453","17979","980","10"
"6.6.1","mac","0","2023-02-17","16:38:10","202847853","1","1","experiment","4","experiment_U","2069","1","23","IEV","POS","1","","","","","","23","40","15","4","1","4","8","3","42","39","8","31","2","4453","17979","980","10"
"6.6.1","mac","0","2023-02-17","16:38:10","202847853","1","1","experiment","4","dispFeedback_U","1000","1","23","IEV","POS","1","200","0.2829863968949362651","56.7108052750434197264","200","0.2038603872535425243","23","40","15","4","1","4","9","3","42","40","8","31","2","4469","18179","990","10"
"6.6.1","mac","0","2023-02-17","16:38:10","202847853","1","1","experiment","4","experiment_U","1304","1","39","IEV","POS","1","","","","","","39","40","15","4","1","4","9","3","42","40","8","31","2","4469","18179","990","10"
"6.6.1","mac","0","2023-02-17","16:38:10","202847853","1","1","experiment","4","dispFeedback_U","1000","1","39","IEV","POS","1","201","0.2762392805835352516","55.48179759561246982","201","0.8675729043007764929","39","40","15","4","1","4","10","3","42","41","8","31","2","4504","18380","1000","10"
"6.6.1","mac","0","2023-02-17","16:38:10","202847853","1","1","experiment","4","experiment_U","381","1","61","IEV","POS","1","","","","","","61","40","15","4","1","4","10","3","42","41","8","31","2","4504","18380","1000","10"
"6.6.1","mac","0","2023-02-17","16:38:10","202847853","1","1","experiment","4","dispFeedback_U","1000","1","61","IEV","POS","1","229","0.2427976299784271041","55.6114111817081422373","229","0.492489708469363352","61","40","15","4","1","4","11","3","42","42","8","31","2","4681","18609","1010","10"
"6.6.1","mac","0","2023-02-17","16:38:10","202847853","1","1","experiment","5","experiment_noU","2872","1","7","CEV","POS","1","","","","","","7","45","45","0","0","0","0","4","32","0","7","30","2","4681","18609","1010","10"
"6.6.1","mac","0","2023-02-17","16:38:10","202847853","1","1","experiment","5","dispFeedback_noU","1000","1","7","CEV","POS","1","144","0.261142857142857121","37.5222857142857080248","144","0.0895964575674376568","7","45","45","0","0","0","0","4","32","1","7","30","0","4472","18753","1020","10"
"6.6.1","mac","0","2023-02-17","16:38:10","202847853","1","1","experiment","5","experiment_noU","4532","1","75","CEV","POS","1","","","","","","75","45","45","0","0","0","0","4","32","1","7","30","0","4472","18753","1020","10"
"6.6.1","mac","0","2023-02-17","16:38:10","202847853","1","1","experiment","5","dispFeedback_noU","1000","1","75","CEV","POS","1","149","0.2525714285714285579","37.7577142857142860066","149","0.7808761402920065819","75","45","45","0","0","0","0","4","32","2","7","30","0","4532","18902","1030","10"
"6.6.1","mac","0","2023-02-17","16:38:10","202847853","1","1","experiment","5","experiment_noU","4041","1","83","CEV","POS","1","","","","","","83","45","45","0","0","0","0","4","32","2","7","30","0","4532","18902","1030","10"
"6.6.1","mac","0","2023-02-17","16:38:10","202847853","1","1","experiment","5","dispFeedback_noU","1000","1","83","CEV","POS","1","142","0.2655714285714285694","37.7967142857142803791","142","0.4276868082647413694","83","45","45","0","0","0","0","4","32","3","7","30","0","4441","19044","1040","10"
"6.6.1","mac","0","2023-02-17","16:38:10","202847853","1","1","experiment","5","experiment_noU","316","1","59","CEV","POS","1","","","","","","59","45","45","0","0","0","0","4","32","3","7","30","0","4441","19044","1040","10"
"6.6.1","mac","0","2023-02-17","16:38:10","202847853","1","1","experiment","5","dispFeedback_noU","1000","1","59","CEV","POS","1","147","0.2548571428571428932","37.5097142857142884509","147","0.2074537671188483312","59","45","45","0","0","0","0","4","32","4","7","30","0","4516","19191","1050","10"
"6.6.1","mac","0","2023-02-17","16:38:10","202847853","1","1","experiment","5","experiment_noU","3341","1","99","CEV","POS","1","","","","","","99","45","45","0","0","0","0","4","32","4","7","30","0","4516","19191","1050","10"
"6.6.1","mac","0","2023-02-17","16:38:10","202847853","1","1","experiment","5","dispFeedback_noU","1000","1","99","CEV","POS","1","148","0.2512857142857143344","37.2512857142857214399","148","0.8611227369078254812","99","45","45","0","0","0","0","4","32","5","7","30","0","4541","19339","1060","10"
"6.6.1","mac","0","2023-02-17","16:38:10","202847853","1","1","experiment","5","experiment_noU","1476","1","36","CEV","POS","1","","","","","","36","45","45","0","0","0","0","4","32","5","7","30","0","4541","19339","1060","10"
"6.6.1","mac","0","2023-02-17","16:38:10","202847853","1","1","experiment","5","dispFeedback_noU","1000","1","36","CEV","POS","1","141","0.2534285714285714475","35.7328571428571422075","141","0.9516951136644219433","36","45","45","0","0","0","0","4","32","6","7","30","0","4526","19480","1070","10"
"6.6.1","mac","0","2023-02-17","16:38:10","202847853","1","1","experiment","5","experiment_noU","3048","1","5","CEV","POS","1","","","","","","5","45","45","0","0","0","0","4","32","6","7","30","0","4526","19480","1070","10"
"6.6.1","mac","0","2023-02-17","16:38:10","202847853","1","1","experiment","5","dispFeedback_noU","1000","1","5","CEV","POS","1","153","0.2502857142857143335","38.2514285714285762197","153","0.6293493499116388223","5","45","45","0","0","0","0","4","32","7","7","30","1","4548","19633","1080","10"
"6.6.1","mac","0","2023-02-17","16:38:10","202847853","1","1","experiment","5","experiment_U","2411","1","21","CEV","POS","1","","","","","","21","45","45","0","0","0","0","4","32","7","7","30","1","4548","19633","1080","10"
"6.6.1","mac","0","2023-02-17","16:38:10","202847853","1","1","experiment","5","dispFeedback_U","1000","1","21","CEV","POS","1","165","0.2269999999999999796","37.4539999999999935199","165","0.3020182045414154803","21","45","45","0","0","1","0","4","32","8","7","30","1","4711","19798","1090","10"
"6.6.1","mac","0","2023-02-17","16:38:10","202847853","1","1","experiment","5","experiment_U","3642","1","96","CEV","POS","1","","","","","","96","45","45","0","0","1","0","4","32","8","7","30","1","4711","19798","1090","10"
"6.6.1","mac","0","2023-02-17","16:38:10","202847853","1","1","experiment","5","dispFeedback_U","1000","1","96","CEV","POS","1","163","0.2297142857142857597","37.4594285714285817335","163","0.0334718551099002018","96","45","45","0","0","2","0","4","32","9","7","30","1","4692","19961","1100","10"
"6.6.1","mac","0","2023-02-17","16:38:10","202847853","1","1","experiment","5","experiment_U","442","1","67","CEV","POS","1","","","","","","67","45","45","0","0","2","0","4","32","9","7","30","1","4692","19961","1100","10"
"6.6.1","mac","0","2023-02-17","16:38:10","202847853","1","1","experiment","5","dispFeedback_U","1000","1","67","CEV","POS","1","43","0.8940000000000000169","38.7880000000000038085","43","0.6262843919979139695","67","45","45","1","0","3","0","4","32","10","7","30","1","42","20004","1103","3"
"6.6.1","mac","0","2023-02-17","16:38:10","202847853","1","1","experiment","5","experiment_U","3849","1","91","CEV","POS","1","","","","","","91","45","45","1","0","3","0","4","32","10","7","30","1","42","20004","1103","3"
"6.6.1","mac","0","2023-02-17","16:38:10","202847853","1","1","experiment","5","dispFeedback_U","1000","1","91","CEV","POS","1","152","0.2358571428571428763","35.820714285714288394","152","0.3162584577957769927","91","45","45","1","0","4","0","4","32","11","7","30","1","4649","20156","1113","10"
"6.6.1","mac","0","2023-02-17","16:38:10","202847853","1","1","experiment","5","experiment_U","2647","1","16","CEV","POS","1","","","","","","16","45","45","1","0","4","0","4","32","11","7","30","1","4649","20156","1113","10"
"6.6.1","mac","0","2023-02-17","16:38:10","202847853","1","1","experiment","5","dispFeedback_U","1000","1","16","CEV","POS","1","164","0.2289999999999999813","37.4579999999999984084","164","0.8449405661888748087","16","45","45","1","0","5","0","4","32","12","7","30","1","4697","20320","1123","10"
"6.6.1","mac","0","2023-02-17","16:38:10","202847853","1","1","experiment","5","experiment_U","2853","1","11","CEV","POS","1","","","","","","11","45","45","1","0","5","0","4","32","12","7","30","1","4697","20320","1123","10"
"6.6.1","mac","0","2023-02-17","16:38:10","202847853","1","1","experiment","5","dispFeedback_U","1000","1","11","CEV","POS","1","157","0.2352857142857143202","37.0000000000000071054","157","0.9294157854582685285","11","45","45","1","0","6","0","4","32","13","7","30","1","4653","20477","1133","10"
"6.6.1","mac","0","2023-02-17","16:38:10","202847853","1","1","experiment","5","experiment_U","4478","1","80","CEV","POS","1","","","","","","80","45","45","1","0","6","0","4","32","13","7","30","1","4653","20477","1133","10"
"6.6.1","mac","0","2023-02-17","16:38:10","202847853","1","1","experiment","5","dispFeedback_U","1000","1","80","CEV","POS","1","169","0.224571428571428533","37.8982857142857127997","169","0.6964570725561252118","80","45","45","1","0","7","0","4","32","14","7","30","1","4728","20646","1143","10"
"6.6.1","mac","0","2023-02-17","16:38:10","202847853","1","1","experiment","5","experiment_U","3821","1","92","CEV","POS","1","","","","","","92","45","45","1","0","7","0","4","32","14","7","30","1","4728","20646","1143","10"
"6.6.1","mac","0","2023-02-17","16:38:10","202847853","1","1","experiment","5","dispFeedback_U","1000","1","92","CEV","POS","1","157","0.2327142857142857624","36.53457142857143225","157","0.1088578691959515843","92","45","45","1","0","8","0","4","32","15","7","30","1","4671","20803","1153","10"
"6.6.1","mac","0","2023-02-17","16:38:10","202847853","1","1","experiment","5","experiment_U","649","1","52","CEV","POS","1","","","","","","52","45","45","1","0","8","0","4","32","15","7","30","1","4671","20803","1153","10"
"6.6.1","mac","0","2023-02-17","16:38:10","202847853","1","1","experiment","5","dispFeedback_U","1000","1","52","CEV","POS","1","139","0.2572857142857143398","35.7135714285714414018","139","0.4669323231715085676","52","45","45","1","0","9","0","4","32","16","7","30","1","4499","20942","1163","10"
"6.6.1","mac","0","2023-02-17","16:38:10","202847853","1","1","experiment","5","experiment_U","665","1","54","CEV","POS","1","","","","","","54","45","45","1","0","9","0","4","32","16","7","30","1","4499","20942","1163","10"
"6.6.1","mac","0","2023-02-17","16:38:10","202847853","1","1","experiment","5","dispFeedback_U","1000","1","54","CEV","POS","1","156","0.2407142857142857695","37.4814285714285801987","156","0.9031747018227295198","54","45","45","1","0","10","0","4","32","17","7","30","1","4615","21098","1173","10"
"6.6.1","mac","0","2023-02-17","16:38:10","202847853","1","1","experiment","5","experiment_U","479","1","57","CEV","POS","1","","","","","","57","45","45","1","0","10","0","4","32","17","7","30","1","4615","21098","1173","10"
"6.6.1","mac","0","2023-02-17","16:38:10","202847853","1","1","experiment","5","dispFeedback_U","1000","1","57","CEV","POS","1","148","0.2458571428571428852","36.5082857142857193367","148","0.2697362369554434647","57","45","45","1","0","11","0","4","32","18","7","30","1","4579","21246","1183","10"
"6.6.1","mac","0","2023-02-17","16:38:10","202847853","1","1","experiment","5","experiment_U","533","1","56","CEV","POS","1","","","","","","56","45","45","1","0","11","0","4","32","18","7","30","1","4579","21246","1183","10"
"6.6.1","mac","0","2023-02-17","16:38:10","202847853","1","1","experiment","5","dispFeedback_U","1000","1","56","CEV","POS","1","148","0.2452857142857143291","36.2641428571428647842","148","0.3426023184653842479","56","45","45","1","0","12","0","4","32","19","7","30","1","4583","21394","1193","10"
"6.6.1","mac","0","2023-02-17","16:38:10","202847853","1","1","experiment","5","experiment_U","474","1","54","CEV","POS","1","","","","","","54","45","45","1","0","12","0","4","32","19","7","30","1","4583","21394","1193","10"
"6.6.1","mac","0","2023-02-17","16:38:10","202847853","1","1","experiment","5","dispFeedback_U","1000","1","54","CEV","POS","1","137","0.268000000000000016","36.7319999999999993179","137","0.3735386993208757445","54","45","45","1","0","13","0","4","32","20","7","30","1","4424","21531","1203","10"
"6.6.1","mac","0","2023-02-17","16:38:10","202847853","1","1","experiment","5","experiment_U","4416","1","77","CEV","POS","1","","","","","","77","45","45","1","0","13","0","4","32","20","7","30","1","4424","21531","1203","10"
"6.6.1","mac","0","2023-02-17","16:38:10","202847853","1","1","experiment","5","dispFeedback_U","1000","1","77","CEV","POS","1","144","0.2548571428571428932","36.7451428571428664327","144","0.2749300259805587121","77","45","45","1","0","14","0","4","32","21","7","30","1","4516","21675","1213","10"
"6.6.1","mac","0","2023-02-17","16:38:10","202847853","1","1","experiment","5","experiment_U","413","1","72","CEV","POS","1","","","","","","72","45","45","1","0","14","0","4","32","21","7","30","1","4516","21675","1213","10"
"6.6.1","mac","0","2023-02-17","16:38:10","202847853","1","1","experiment","5","dispFeedback_U","1000","1","72","CEV","POS","1","39","0.8624285714285714333","33.5502857142857209283","39","0.2165863293261701128","72","45","45","2","0","15","0","4","32","22","7","30","1","263","21714","1216","3"
"6.6.1","mac","0","2023-02-17","16:38:10","202847853","1","1","experiment","5","experiment_U","392","1","62","CEV","POS","1","","","","","","62","45","45","2","0","15","0","4","32","22","7","30","1","263","21714","1216","3"
"6.6.1","mac","0","2023-02-17","16:38:10","202847853","1","1","experiment","5","dispFeedback_U","1000","1","62","CEV","POS","1","164","0.2225714285714285312","36.5548571428571378306","164","0.1079108920199589039","62","45","45","2","0","16","0","4","32","23","7","30","1","4742","21878","1226","10"
"6.6.1","mac","0","2023-02-17","16:38:10","202847853","1","1","experiment","5","experiment_U","4830","1","72","CEV","POS","1","","","","","","72","45","45","2","0","16","0","4","32","23","7","30","1","4742","21878","1226","10"
"6.6.1","mac","0","2023-02-17","16:38:10","202847853","1","1","experiment","5","dispFeedback_U","1000","1","72","CEV","POS","1","158","0.2314285714285714279","36.5371428571428538135","158","0.7255795329635915669","72","45","45","2","0","17","0","4","32","24","7","30","0","4680","22036","1236","10"
"6.6.1","mac","0","2023-02-17","16:38:10","202847853","1","1","experiment","5","experiment_noU","3507","1","0","CEV","POS","1","","","","","","0","45","45","2","0","17","0","4","32","24","7","30","0","4680","22036","1236","10"
"6.6.1","mac","0","2023-02-17","16:38:10","202847853","1","1","experiment","5","dispFeedback_noU","1000","1","0","CEV","POS","1","172","0.2204285714285714182","37.8817142857142812318","172","0.9784877924198489563","0","45","45","2","0","17","0","4","32","25","7","30","0","4757","22208","1246","10"
"6.6.1","mac","0","2023-02-17","16:38:10","202847853","1","1","experiment","5","experiment_noU","465","1","58","CEV","POS","1","","","","","","58","45","45","2","0","17","0","4","32","25","7","30","0","4757","22208","1246","10"
"6.6.1","mac","0","2023-02-17","16:38:10","202847853","1","1","experiment","5","dispFeedback_noU","1000","1","58","CEV","POS","1","157","0.2407142857142857695","37.722142857142870298","157","0.1293339070699489335","58","45","45","2","0","17","0","4","32","26","7","30","0","4615","22365","1256","10"
"6.6.1","mac","0","2023-02-17","16:38:10","202847853","1","1","experiment","5","experiment_noU","366","1","62","CEV","POS","1","","","","","","62","45","45","2","0","17","0","4","32","26","7","30","0","4615","22365","1256","10"
"6.6.1","mac","0","2023-02-17","16:38:10","202847853","1","1","experiment","5","dispFeedback_noU","1000","1","62","CEV","POS","1","169","0.2262857142857143122","38.1314285714285787776","169","0.1272930228447758105","62","45","45","2","0","17","0","4","32","27","7","30","0","4716","22534","1266","10"
"6.6.1","mac","0","2023-02-17","16:38:10","202847853","1","1","experiment","5","experiment_noU","4410","1","81","CEV","POS","1","","","","","","81","45","45","2","0","17","0","4","32","27","7","30","0","4716","22534","1266","10"
"6.6.1","mac","0","2023-02-17","16:38:10","202847853","1","1","experiment","5","dispFeedback_noU","1000","1","81","CEV","POS","1","163","0.2271428571428570908","36.9999999999999928946","163","0.6202492140280663202","81","45","45","2","0","17","0","4","32","28","7","30","0","4710","22697","1276","10"
"6.6.1","mac","0","2023-02-17","16:38:10","202847853","1","1","experiment","5","experiment_noU","2143","1","26","CEV","POS","1","","","","","","26","45","45","2","0","17","0","4","32","28","7","30","0","4710","22697","1276","10"
"6.6.1","mac","0","2023-02-17","16:38:10","202847853","1","1","experiment","5","dispFeedback_noU","1000","1","26","CEV","POS","1","166","0.2295714285714285374","38.1478571428571413549","166","0.9289723988457052606","26","45","45","2","0","17","0","4","32","29","7","30","0","4693","22863","1286","10"
"6.6.1","mac","0","2023-02-17","16:38:10","202847853","1","1","experiment","5","experiment_noU","1118","1","47","CEV","POS","1","","","","","","47","45","45","2","0","17","0","4","32","29","7","30","0","4693","22863","1286","10"
"6.6.1","mac","0","2023-02-17","16:38:10","202847853","1","1","experiment","5","dispFeedback_noU","1000","1","47","CEV","POS","1","161","0.2259999999999999787","36.3219999999999956231","161","0.1257227342868509623","47","45","45","2","0","17","0","4","32","30","7","30","2","4718","23024","1296","10"
"6.6.1","mac","0","2023-02-17","16:38:10","202847853","1","1","experiment","5","experiment_U","3046","1","7","CEV","POS","1","","","","","","7","45","45","2","0","17","0","4","32","30","7","30","2","4718","23024","1296","10"
"6.6.1","mac","0","2023-02-17","16:38:10","202847853","1","1","experiment","5","dispFeedback_U","1000","1","7","CEV","POS","1","155","0.2362857142857143211","36.5274285714285795734","155","0.0702025201335089583","7","45","45","2","0","17","1","4","32","31","7","30","2","4646","23179","1306","10"
"6.6.1","mac","0","2023-02-17","16:38:10","202847853","1","1","experiment","5","experiment_U","1698","1","34","CEV","POS","1","","","","","","34","45","45","2","0","17","1","4","32","31","7","30","2","4646","23179","1306","10"
"6.6.1","mac","0","2023-02-17","16:38:10","202847853","1","1","experiment","5","dispFeedback_U","1000","1","34","CEV","POS","1","159","0.2359999999999999876","37.471999999999994202","159","0.2564551304691599642","34","45","45","2","0","17","2","4","32","32","7","30","2","4648","23338","1316","10"
"6.6.1","mac","0","2023-02-17","16:38:10","202847853","1","1","experiment","6","experiment_noU","1076","1","46","DEV","POS","1","","","","","","46","10","40","0","0","0","0","5","40","0","10","28","2","4648","23338","1316","10"
"6.6.1","mac","0","2023-02-17","16:38:10","202847853","1","1","experiment","6","dispFeedback_noU","1000","1","46","DEV","POS","1","85","0.225222688633383572","19.0996852627034279237","85","0.1503745646100431987","46","10","40","0","0","0","0","5","40","1","10","28","0","4626","23423","1322","6"
"6.6.1","mac","0","2023-02-17","16:38:10","202847853","1","1","experiment","6","experiment_noU","421","1","40","DEV","POS","1","","","","","","40","10","40","0","0","0","0","5","40","1","10","28","0","4626","23423","1322","6"
"6.6.1","mac","0","2023-02-17","16:38:10","202847853","1","1","experiment","6","dispFeedback_noU","1000","1","40","DEV","POS","1","83","0.3059667548535001669","25.3424524988758399502","83","0.8934724749749229922","40","10","40","0","0","0","0","5","40","2","10","28","0","3671","23506","1328","6"
"6.6.1","mac","0","2023-02-17","16:38:10","202847853","1","1","experiment","6","experiment_noU","258","1","95","DEV","POS","1","","","","","","95","10","40","0","0","0","0","5","40","2","10","28","0","3671","23506","1328","6"
"6.6.1","mac","0","2023-02-17","16:38:10","202847853","1","1","experiment","6","dispFeedback_noU","1000","1","95","DEV","POS","1","75","0.5923175682829593391","44.3034517203048565648","75","0.5441070316694925912","95","10","40","0","0","0","0","5","40","3","10","28","0","1258","23581","1334","6"
"6.6.1","mac","0","2023-02-17","16:38:10","202847853","1","1","experiment","6","experiment_noU","788","1","54","DEV","POS","1","","","","","","54","10","40","0","0","0","0","5","40","3","10","28","0","1258","23581","1334","6"
"6.6.1","mac","0","2023-02-17","16:38:10","202847853","1","1","experiment","6","dispFeedback_noU","1000","1","54","DEV","POS","1","86","0.2140008648460225982","18.406570964759225717","86","0.4112375598426995515","54","10","40","0","0","0","0","5","40","4","10","28","0","4738","23667","1340","6"
"6.6.1","mac","0","2023-02-17","16:38:10","202847853","1","1","experiment","6","experiment_noU","461","1","38","DEV","POS","1","","","","","","38","10","40","0","0","0","0","5","40","4","10","28","0","4738","23667","1340","6"
"6.6.1","mac","0","2023-02-17","16:38:10","202847853","1","1","experiment","6","dispFeedback_noU","1000","1","38","DEV","POS","1","89","0.3105709224460180273","27.5443027262592927684","89","0.0170886120798738224","38","10","40","0","0","0","0","5","40","5","10","28","0","3611","23756","1347","7"
"6.6.1","mac","0","2023-02-17","16:38:10","202847853","1","1","experiment","6","experiment_noU","1823","1","89","DEV","POS","1","","","","","","89","10","40","0","0","0","0","5","40","5","10","28","0","3611","23756","1347","7"
"6.6.1","mac","0","2023-02-17","16:38:10","202847853","1","1","experiment","6","dispFeedback_noU","1000","1","89","DEV","POS","1","77","0.40469265675150079","31.0725768981025751714","77","0.3780223141373187379","89","10","40","0","0","0","0","5","40","6","10","28","0","2523","23833","1353","6"
"6.6.1","mac","0","2023-02-17","16:38:10","202847853","1","1","experiment","6","experiment_noU","475","1","77","DEV","POS","1","","","","","","77","10","40","0","0","0","0","5","40","6","10","28","0","2523","23833","1353","6"
"6.6.1","mac","0","2023-02-17","16:38:10","202847853","1","1","experiment","6","dispFeedback_noU","1000","1","77","DEV","POS","1","77","0.7455841614058482669","57.0424183042562518153","77","0.5698613230068845237","77","10","40","0","0","0","0","5","40","7","10","28","0","575","23910","1359","6"
"6.6.1","mac","0","2023-02-17","16:38:10","202847853","1","1","experiment","6","experiment_noU","424","1","10","DEV","POS","1","","","","","","10","10","40","0","0","0","0","5","40","7","10","28","0","575","23910","1359","6"
"6.6.1","mac","0","2023-02-17","16:38:10","202847853","1","1","experiment","6","dispFeedback_noU","1000","1","10","DEV","POS","1","83","0.4451518998289920592","36.7849494782534662818","83","0.1905795697100878539","10","10","40","0","0","0","0","5","40","8","10","28","0","2174","23993","1365","6"
"6.6.1","mac","0","2023-02-17","16:38:10","202847853","1","1","experiment","6","experiment_noU","366","1","97","DEV","POS","1","","","","","","97","10","40","0","0","0","0","5","40","8","10","28","0","2174","23993","1365","6"
"6.6.1","mac","0","2023-02-17","16:38:10","202847853","1","1","experiment","6","dispFeedback_noU","1000","1","97","DEV","POS","1","77","0.5530999622611618705","42.4816027132562084034","77","0.5941406105631358292","97","10","40","0","0","0","0","5","40","9","10","28","0","1466","24070","1371","6"
"6.6.1","mac","0","2023-02-17","16:38:10","202847853","1","1","experiment","6","experiment_noU","391","1","69","DEV","POS","1","","","","","","69","10","40","0","0","0","0","5","40","9","10","28","0","1466","24070","1371","6"
"6.6.1","mac","0","2023-02-17","16:38:10","202847853","1","1","experiment","6","dispFeedback_noU","1000","1","69","DEV","POS","1","67","0.8743279105389277772","58.3465066856196585832","67","0.5790258072267812084","69","10","40","0","0","0","0","5","40","10","10","28","1","91","24137","1376","5"
"6.6.1","mac","0","2023-02-17","16:38:10","202847853","1","1","experiment","6","experiment_U","1928","1","11","DEV","POS","1","","","","","","11","10","40","0","0","0","0","5","40","10","10","28","1","91","24137","1376","5"
"6.6.1","mac","0","2023-02-17","16:38:10","202847853","1","1","experiment","6","dispFeedback_U","1000","1","11","DEV","POS","1","88","0.3015841535819115404","26.5264473302690753087","88","0.3340313200219607315","11","10","40","1","0","1","0","5","40","11","10","28","1","3728","24225","1382","6"
"6.6.1","mac","0","2023-02-17","16:38:10","202847853","1","1","experiment","6","experiment_U","538","1","29","DEV","POS","1","","","","","","29","10","40","1","0","1","0","5","40","11","10","28","1","3728","24225","1382","6"
"6.6.1","mac","0","2023-02-17","16:38:10","202847853","1","1","experiment","6","dispFeedback_U","1000","1","29","DEV","POS","1","85","0.3396190864855931357","28.7943606022282629908","85","0.4399620470218272295","29","10","40","1","0","2","0","5","40","12","10","28","1","3238","24310","1388","6"
"6.6.1","mac","0","2023-02-17","16:38:10","202847853","1","1","experiment","6","experiment_U","378","1","55","DEV","POS","1","","","","","","55","10","40","1","0","2","0","5","40","12","10","28","1","3238","24310","1388","6"
"6.6.1","mac","0","2023-02-17","16:38:10","202847853","1","1","experiment","6","dispFeedback_U","1000","1","55","DEV","POS","1","86","0.2484225305948213336","21.4455041339876437689","86","0.2157230743243645499","55","10","40","1","0","3","0","5","40","13","10","28","1","4378","24396","1394","6"
"6.6.1","mac","0","2023-02-17","16:38:10","202847853","1","1","experiment","6","experiment_U","377","1","25","DEV","POS","1","","","","","","25","10","40","1","0","3","0","5","40","13","10","28","1","4378","24396","1394","6"
"6.6.1","mac","0","2023-02-17","16:38:10","202847853","1","1","experiment","6","dispFeedback_U","1000","1","25","DEV","POS","1","78","0.3701637338624190754","28.8071772624597102208","78","0.6770479855307024453","25","10","40","1","0","4","0","5","40","14","10","28","1","2877","24474","1400","6"
"6.6.1","mac","0","2023-02-17","16:38:10","202847853","1","1","experiment","6","experiment_U","567","1","8","DEV","POS","1","","","","","","8","10","40","1","0","4","0","5","40","14","10","28","1","2877","24474","1400","6"
"6.6.1","mac","0","2023-02-17","16:38:10","202847853","1","1","experiment","6","dispFeedback_U","1000","1","8","DEV","POS","1","77","0.4397634995815555836","33.7664090298447803207","77","0.5462612878871758726","8","10","40","1","0","5","0","5","40","15","10","28","1","2217","24551","1406","6"
"6.6.1","mac","0","2023-02-17","16:38:10","202847853","1","1","experiment","6","experiment_U","392","1","70","DEV","POS","1","","","","","","70","10","40","1","0","5","0","5","40","15","10","28","1","2217","24551","1406","6"
"6.6.1","mac","0","2023-02-17","16:38:10","202847853","1","1","experiment","6","dispFeedback_U","1000","1","70","DEV","POS","1","64","0.8601180110485230346","55.3553030539594459469","64","0.8249074900115158648","70","10","40","2","0","6","0","5","40","16","10","28","1","142","24615","1411","5"
"6.6.1","mac","0","2023-02-17","16:38:10","202847853","1","1","experiment","6","experiment_U","376","1","14","DEV","POS","1","","","","","","14","10","40","2","0","6","0","5","40","16","10","28","1","142","24615","1411","5"
"6.6.1","mac","0","2023-02-17","16:38:10","202847853","1","1","experiment","6","dispFeedback_U","1000","1","14","DEV","POS","1","83","0.4266330693922930628","35.4745264702320000083","83","0.8134756236834161935","14","10","40","2","0","7","0","5","40","17","10","28","1","2326","24698","1417","6"
"6.6.1","mac","0","2023-02-17","16:38:10","202847853","1","1","experiment","6","experiment_U","888","1","45","DEV","POS","1","","","","","","45","10","40","2","0","7","0","5","40","17","10","28","1","2326","24698","1417","6"
"6.6.1","mac","0","2023-02-17","16:38:10","202847853","1","1","experiment","6","dispFeedback_U","1000","1","45","DEV","POS","1","82","0.2475272214468760557","20.3829758481060210329","82","0.8364533336917994166","45","10","40","2","0","8","0","5","40","18","10","28","1","4388","24780","1423","6"
"6.6.1","mac","0","2023-02-17","16:38:10","202847853","1","1","experiment","6","experiment_U","372","1","12","DEV","POS","1","","","","","","12","10","40","2","0","8","0","5","40","18","10","28","1","4388","24780","1423","6"
"6.6.1","mac","0","2023-02-17","16:38:10","202847853","1","1","experiment","6","dispFeedback_U","1000","1","12","DEV","POS","1","82","0.4391447463206596957","35.9221438534226962247","82","0.3786031313656371133","12","10","40","2","0","9","0","5","40","19","10","28","1","2222","24862","1429","6"
"6.6.1","mac","0","2023-02-17","16:38:10","202847853","1","1","experiment","6","experiment_U","675","1","48","DEV","POS","1","","","","","","48","10","40","2","0","9","0","5","40","19","10","28","1","2222","24862","1429","6"
"6.6.1","mac","0","2023-02-17","16:38:10","202847853","1","1","experiment","6","dispFeedback_U","1000","1","48","DEV","POS","1","81","0.2531163979198182146","20.5585713037230135569","81","0.6200019751256335976","48","10","40","2","0","10","0","5","40","20","10","28","1","4325","24943","1435","6"
"6.6.1","mac","0","2023-02-17","16:38:10","202847853","1","1","experiment","6","experiment_U","337","1","82","DEV","POS","1","","","","","","82","10","40","2","0","10","0","5","40","20","10","28","1","4325","24943","1435","6"
"6.6.1","mac","0","2023-02-17","16:38:10","202847853","1","1","experiment","6","dispFeedback_U","1000","1","82","DEV","POS","1","73","0.7179880145349488707","52.6636915361737933949","73","0.6082245874237791616","82","10","40","2","0","11","0","5","40","21","10","28","1","687","25016","1440","5"
"6.6.1","mac","0","2023-02-17","16:38:10","202847853","1","1","experiment","6","experiment_U","443","1","96","DEV","POS","1","","","","","","96","10","40","2","0","11","0","5","40","21","10","28","1","687","25016","1440","5"
"6.6.1","mac","0","2023-02-17","16:38:10","202847853","1","1","experiment","6","dispFeedback_U","1000","1","96","DEV","POS","1","82","0.5482685717505237921","44.9197852540034148205","82","0.2876326819620171338","96","10","40","2","0","12","0","5","40","22","10","28","1","1493","25098","1446","6"
"6.6.1","mac","0","2023-02-17","16:38:10","202847853","1","1","experiment","6","experiment_U","371","1","62","DEV","POS","1","","","","","","62","10","40","2","0","12","0","5","40","22","10","28","1","1493","25098","1446","6"
"6.6.1","mac","0","2023-02-17","16:38:10","202847853","1","1","experiment","6","dispFeedback_U","1000","1","62","DEV","POS","1","83","0.2157362659060961807","17.9018721022555524769","83","0.3083886772646542429","62","10","40","2","0","13","0","5","40","23","10","28","1","4721","25181","1452","6"
"6.6.1","mac","0","2023-02-17","16:38:10","202847853","1","1","experiment","6","experiment_U","640","1","71","DEV","POS","1","","","","","","71","10","40","2","0","13","0","5","40","23","10","28","1","4721","25181","1452","6"
"6.6.1","mac","0","2023-02-17","16:38:10","202847853","1","1","experiment","6","dispFeedback_U","1000","1","71","DEV","POS","1","65","0.7800179163524455506","51.0036831343355459012","65","0.432290935756706407","71","10","40","2","0","14","0","5","40","24","10","28","1","440","25246","1457","5"
"6.6.1","mac","0","2023-02-17","16:38:10","202847853","1","1","experiment","6","experiment_U","1415","1","23","DEV","POS","1","","","","","","23","10","40","2","0","14","0","5","40","24","10","28","1","440","25246","1457","5"
"6.6.1","mac","0","2023-02-17","16:38:10","202847853","1","1","experiment","6","dispFeedback_U","1000","1","23","DEV","POS","1","85","0.294858878674528424","25.107706666945265539","85","0.3564316240037865291","23","10","40","3","0","15","0","5","40","25","10","28","1","3815","25331","1463","6"
"6.6.1","mac","0","2023-02-17","16:38:10","202847853","1","1","experiment","6","experiment_U","396","1","63","DEV","POS","1","","","","","","63","10","40","3","0","15","0","5","40","25","10","28","1","3815","25331","1463","6"
"6.6.1","mac","0","2023-02-17","16:38:10","202847853","1","1","experiment","6","dispFeedback_U","1000","1","63","DEV","POS","1","89","0.207991044923993923","18.5356956782171309328","89","0.4811795613451813058","63","10","40","3","0","16","0","5","40","26","10","28","1","4796","25420","1470","7"
"6.6.1","mac","0","2023-02-17","16:38:10","202847853","1","1","experiment","6","experiment_U","1983","1","72","DEV","POS","1","","","","","","72","10","40","3","0","16","0","5","40","26","10","28","1","4796","25420","1470","7"
"6.6.1","mac","0","2023-02-17","16:38:10","202847853","1","1","experiment","6","dispFeedback_U","1000","1","72","DEV","POS","1","83","0.4924133235465329994","41.0532849219537467889","83","0.8639935960210844978","72","10","40","3","0","17","0","5","40","27","10","28","1","1833","25503","1476","6"
"6.6.1","mac","0","2023-02-17","16:38:10","202847853","1","1","experiment","6","experiment_U","963","1","31","DEV","POS","1","","","","","","31","10","40","3","0","17","0","5","40","27","10","28","1","1833","25503","1476","6"
"6.6.1","mac","0","2023-02-17","16:38:10","202847853","1","1","experiment","6","dispFeedback_U","1000","1","31","DEV","POS","1","82","0.2988851017591631631","24.5192678641979497911","82","0.8083803597391536755","31","10","40","4","0","18","0","5","40","28","10","28","2","3763","25585","1482","6"
"6.6.1","mac","0","2023-02-17","16:38:10","202847853","1","1","experiment","6","experiment_U","533","1","23","DEV","POS","1","","","","","","23","10","40","4","0","18","0","5","40","28","10","28","2","3763","25585","1482","6"
"6.6.1","mac","0","2023-02-17","16:38:10","202847853","1","1","experiment","6","dispFeedback_U","1000","1","23","DEV","POS","1","81","0.3651729311099828346","29.57102485729765462","81","0.1146849193877272632","23","10","40","4","1","18","1","5","40","29","10","28","2","2933","25666","1488","6"
"6.6.1","mac","0","2023-02-17","16:38:10","202847853","1","1","experiment","6","experiment_U","957","1","45","DEV","POS","1","","","","","","45","10","40","4","1","18","1","5","40","29","10","28","2","2933","25666","1488","6"
"6.6.1","mac","0","2023-02-17","16:38:10","202847853","1","1","experiment","6","dispFeedback_U","1000","1","45","DEV","POS","1","80","0.2412620981169285028","19.4170397541918475781","80","0.0094227031826560163","45","10","40","4","2","18","2","5","40","30","10","28","2","4457","25746","1494","6"
"6.6.1","mac","0","2023-02-17","16:38:10","202847853","1","1","experiment","6","experiment_U","2579","1","49","DEV","POS","1","","","","","","49","10","40","4","2","18","2","5","40","30","10","28","2","4457","25746","1494","6"
"6.6.1","mac","0","2023-02-17","16:38:10","202847853","1","1","experiment","6","dispFeedback_U","1000","1","49","DEV","POS","1","72","0.5881970510166284472","42.2934086918985059356","72","0.7668011788667182804","49","10","40","4","3","18","3","5","40","31","10","28","2","1279","25818","1499","5"
"6.6.1","mac","0","2023-02-17","16:38:10","202847853","1","1","experiment","6","experiment_U","1162","1","22","DEV","POS","1","","","","","","22","10","40","4","3","18","3","5","40","31","10","28","2","1279","25818","1499","5"
"6.6.1","mac","0","2023-02-17","16:38:10","202847853","1","1","experiment","6","dispFeedback_U","1000","1","22","DEV","POS","1","83","0.3181743022551573041","26.5538500678338778016","83","0.4146092104293893077","22","10","40","4","4","18","4","5","40","32","10","28","0","3512","25901","1505","6"
"6.6.1","mac","0","2023-02-17","16:38:10","202847853","1","1","experiment","6","experiment_noU","558","1","42","DEV","POS","1","","","","","","42","10","40","4","4","18","4","5","40","32","10","28","0","3512","25901","1505","6"
"6.6.1","mac","0","2023-02-17","16:38:10","202847853","1","1","experiment","6","dispFeedback_noU","1000","1","42","DEV","POS","1","82","0.2875916181419029272","23.6847492139849329362","82","0.688914137354333489","42","10","40","4","4","18","4","5","40","33","10","28","0","3908","25983","1511","6"
"6.6.1","mac","0","2023-02-17","16:38:10","202847853","1","1","experiment","6","experiment_noU","770","1","55","DEV","POS","1","","","","","","55","10","40","4","4","18","4","5","40","33","10","28","0","3908","25983","1511","6"
"6.6.1","mac","0","2023-02-17","16:38:10","202847853","1","1","experiment","6","dispFeedback_noU","1000","1","55","DEV","POS","1","83","0.2107022679533947507","17.5031088172988020801","83","0.0642467097063191966","55","10","40","4","4","18","4","5","40","34","10","28","0","4770","26066","1517","6"
"6.6.1","mac","0","2023-02-17","16:38:10","202847853","1","1","experiment","6","experiment_noU","1915","1","61","DEV","POS","1","","","","","","61","10","40","4","4","18","4","5","40","34","10","28","0","4770","26066","1517","6"
"6.6.1","mac","0","2023-02-17","16:38:10","202847853","1","1","experiment","6","dispFeedback_noU","1000","1","61","DEV","POS","1","78","0.600867759387956335","46.6121536090604067226","78","0.8939394775996775122","61","10","40","4","4","18","4","5","40","35","10","28","0","1215","26144","1523","6"
"6.6.1","mac","0","2023-02-17","16:38:10","202847853","1","1","experiment","6","experiment_noU","404","1","25","DEV","POS","1","","","","","","25","10","40","4","4","18","4","5","40","35","10","28","0","1215","26144","1523","6"
