"build","computer.platform","computer.touch","date","time","subject","group","sessionid","blockcode","blocknum","trialcode","latency","randStart","startPos","scrfunc","rtvspos","randStart","mag","freq","ev","inc","rng","startPos","fogPos1","fogPos2","chooseUncertainty1","chooseUncertainty2","uncertaintyCount1","uncertaintyCount2","blockCount","ntrials","trialCount","uncertaintyStart1","uncertaintyStart2","uncertainty_block","rt_shifted","totalPoints","totalEarnings","Earnings"
"6.6.1","mac","0","2023-02-06","13:25:30","427238224","1","null","instructions","1","instructions1","45547","1","75","IEV","POS","1","","","","","","75","0","0","0","0","0","0","0","10","0","0","0","0","","0","0",""
"6.6.1","mac","0","2023-02-06","13:25:30","427238224","1","null","instructions","1","displayGoodJob","3104","1","75","IEV","POS","1","","","","","","75","0","0","0","0","0","0","0","10","0","0","0","0","","0","0",""
"6.6.1","mac","0","2023-02-06","13:25:30","427238224","1","null","instructions","1","feedback2_5","3000","1","75","IEV","POS","1","","","","","","75","0","0","0","0","0","0","0","10","0","0","0","0","","0","0","0"
"6.6.1","mac","0","2023-02-06","13:25:30","427238224","1","null","instructions","1","instructions3","19770","1","75","IEV","POS","1","","","","","","75","0","0","0","0","0","0","0","10","0","0","0","0","","0","0","0"
"6.6.1","mac","0","2023-02-06","13:25:30","427238224","1","null","instructions","1","instructions4","2921","1","75","IEV","POS","1","","","","","","75","0","0","0","0","0","0","0","10","0","0","0","0","","0","0","0"
"6.6.1","mac","0","2023-02-06","13:25:30","427238224","1","null","instructions","1","sampleResponse","3000","1","75","IEV","POS","1","","","","","","75","0","0","0","0","0","0","0","10","0","0","0","0","2921","0","0","0"
"6.6.1","mac","0","2023-02-06","13:25:30","427238224","1","null","instructions","1","instructions5","1304","1","75","IEV","POS","1","","","","","","75","0","0","0","0","0","0","0","10","0","0","0","0","2921","0","0","0"
"6.6.1","mac","0","2023-02-06","13:25:30","427238224","1","null","instructions","1","countdown","1000","1","75","IEV","POS","1","","","","","","75","0","0","0","0","0","0","0","10","0","0","0","0","2921","0","0","0"
"6.6.1","mac","0","2023-02-06","13:25:30","427238224","1","null","experiment","2","experiment_noU","1483","1","46","DEV","POS","1","","","","","","46","20","45","0","0","0","0","1","43","0","5","27","0","2921","0","0","0"
"6.6.1","mac","0","2023-02-06","13:25:30","427238224","1","null","experiment","2","dispFeedback_noU","1000","1","46","DEV","POS","1","65","0.8906452188216106292","57.8665175537272347128","65","0.0973565660178094539","46","20","45","0","0","0","0","1","43","1","5","27","0","33","65","5","5"
"6.6.1","mac","0","2023-02-06","13:25:30","427238224","1","null","experiment","2","experiment_noU","2804","1","44","DEV","POS","1","","","","","","44","20","45","0","0","0","0","1","43","1","5","27","0","33","65","5","5"
"6.6.1","mac","0","2023-02-06","13:25:30","427238224","1","null","experiment","2","dispFeedback_noU","1000","1","44","DEV","POS","1","75","0.5931065337698782081","44.3503348325537345431","75","0.1586223214768390788","44","20","45","0","0","0","0","1","43","2","5","27","0","1254","140","11","6"
"6.6.1","mac","0","2023-02-06","13:25:30","427238224","1","null","experiment","2","experiment_noU","1559","1","95","DEV","POS","1","","","","","","95","20","45","0","0","0","0","1","43","2","5","27","0","1254","140","11","6"
"6.6.1","mac","0","2023-02-06","13:25:30","427238224","1","null","experiment","2","dispFeedback_noU","1000","1","95","DEV","POS","1","77","0.4009132224467392147","30.8269219936186047448","77","0.1123145907447474501","95","20","45","0","0","0","0","1","43","3","5","27","0","2559","217","17","6"
"6.6.1","mac","0","2023-02-06","13:25:30","427238224","1","null","experiment","2","experiment_noU","752","1","35","DEV","POS","1","","","","","","35","20","45","0","0","0","0","1","43","3","5","27","0","2559","217","17","6"
"6.6.1","mac","0","2023-02-06","13:25:30","427238224","1","null","experiment","2","dispFeedback_noU","1000","1","35","DEV","POS","1","86","0.2997341941663417275","25.7804638884694696799","0","0.9478324663238210102","35","20","45","0","0","0","0","1","43","4","5","27","0","3752","217","17","0"
"6.6.1","mac","0","2023-02-06","13:25:30","427238224","1","null","experiment","2","experiment_noU","794","1","62","DEV","POS","1","","","","","","62","20","45","0","0","0","0","1","43","4","5","27","0","3752","217","17","0"
"6.6.1","mac","0","2023-02-06","13:25:30","427238224","1","null","experiment","2","dispFeedback_noU","1000","1","62","DEV","POS","1","64","0.8595634950888827452","55.3400086017011005879","64","0.3406387563656639861","62","20","45","0","0","0","0","1","43","5","5","27","1","144","281","22","5"
"6.6.1","mac","0","2023-02-06","13:25:30","427238224","1","null","experiment","2","experiment_U","1778","1","32","DEV","POS","1","","","","","","32","20","45","0","0","0","0","1","43","5","5","27","1","144","281","22","5"
"6.6.1","mac","0","2023-02-06","13:25:30","427238224","1","null","experiment","2","dispFeedback_U","1000","1","32","DEV","POS","1","83","0.2250265931700341504","18.6338473364268466526","0","0.800140779186072959","32","20","45","0","0","1","0","1","43","6","5","27","1","4628","281","22","0"
"6.6.1","mac","0","2023-02-06","13:25:30","427238224","1","null","experiment","2","experiment_U","2095","1","92","DEV","POS","1","","","","","","92","20","45","0","0","1","0","1","43","6","5","27","1","4628","281","22","0"
"6.6.1","mac","0","2023-02-06","13:25:30","427238224","1","null","experiment","2","dispFeedback_U","1000","1","92","DEV","POS","1","86","0.3641175003535144228","31.3181527223600326693","0","0.5716580286556058876","92","20","45","1","0","2","0","1","43","7","5","27","1","2945","281","22","0"
"6.6.1","mac","0","2023-02-06","13:25:30","427238224","1","null","experiment","2","experiment_U","1050","1","79","DEV","POS","1","","","","","","79","20","45","1","0","2","0","1","43","7","5","27","1","2945","281","22","0"
"6.6.1","mac","0","2023-02-06","13:25:30","427238224","1","null","experiment","2","dispFeedback_U","1000","1","79","DEV","POS","1","75","0.5938968126788548574","44.3972589747114128045","75","0.4107203705726937271","79","20","45","1","0","3","0","1","43","8","5","27","1","1250","356","28","6"
"6.6.1","mac","0","2023-02-06","13:25:30","427238224","1","null","experiment","2","experiment_U","519","1","2","DEV","POS","1","","","","","","2","20","45","1","0","3","0","1","43","8","5","27","1","1250","356","28","6"
"6.6.1","mac","0","2023-02-06","13:25:30","427238224","1","null","experiment","2","dispFeedback_U","1000","1","2","DEV","POS","1","82","0.4870254068938902892","39.6987656109521438452","82","0.4562602421399811758","2","20","45","1","0","4","0","1","43","9","5","27","1","1869","438","34","6"
"6.6.1","mac","0","2023-02-06","13:25:30","427238224","1","null","experiment","2","experiment_U","2930","1","46","DEV","POS","1","","","","","","46","20","45","1","0","4","0","1","43","9","5","27","1","1869","438","34","6"
"6.6.1","mac","0","2023-02-06","13:25:30","427238224","1","null","experiment","2","dispFeedback_U","1000","1","46","DEV","POS","1","76","0.5505873976043705875","41.7735071838839857605","76","0.1046332759094967674","46","20","45","1","0","5","0","1","43","10","5","27","1","1480","514","40","6"
"6.6.1","mac","0","2023-02-06","13:25:30","427238224","1","null","experiment","2","experiment_U","331","1","3","DEV","POS","1","","","","","","3","20","45","1","0","5","0","1","43","10","5","27","1","1480","514","40","6"
"6.6.1","mac","0","2023-02-06","13:25:30","427238224","1","null","experiment","2","dispFeedback_U","1000","1","3","DEV","POS","1","80","0.5082158423981278927","40.6372333928133642189","0","0.9164271100695308148","3","20","45","1","0","6","0","1","43","11","5","27","1","1731","514","40","0"
"6.6.1","mac","0","2023-02-06","13:25:30","427238224","1","null","experiment","2","experiment_U","330","1","31","DEV","POS","1","","","","","","31","20","45","1","0","6","0","1","43","11","5","27","1","1731","514","40","0"
"6.6.1","mac","0","2023-02-06","13:25:30","427238224","1","null","experiment","2","dispFeedback_U","1000","1","31","DEV","POS","1","78","0.348397407664704839","27.0029594442366409623","0","0.8665298979884316077","31","20","45","2","0","7","0","1","43","12","5","27","1","3130","514","40","0"
"6.6.1","mac","0","2023-02-06","13:25:30","427238224","1","null","experiment","2","experiment_U","1264","1","9","DEV","POS","1","","","","","","9","20","45","2","0","7","0","1","43","12","5","27","1","3130","514","40","0"
"6.6.1","mac","0","2023-02-06","13:25:30","427238224","1","null","experiment","2","dispFeedback_U","1000","1","9","DEV","POS","1","85","0.3624561103682024665","30.8316429925462180961","0","0.8885103948154743359","9","20","45","3","0","8","0","1","43","13","5","27","1","2964","514","40","0"
"6.6.1","mac","0","2023-02-06","13:25:30","427238224","1","null","experiment","2","experiment_U","1175","1","77","DEV","POS","1","","","","","","77","20","45","3","0","8","0","1","43","13","5","27","1","2964","514","40","0"
"6.6.1","mac","0","2023-02-06","13:25:30","427238224","1","null","experiment","2","dispFeedback_U","1000","1","77","DEV","POS","1","80","0.5889791197764276953","47.0495584796609520595","0","0.597102411696012747","77","20","45","3","0","9","0","1","43","14","5","27","1","1275","514","40","0"
"6.6.1","mac","0","2023-02-06","13:25:30","427238224","1","null","experiment","2","experiment_U","1986","1","94","DEV","POS","1","","","","","","94","20","45","3","0","9","0","1","43","14","5","27","1","1275","514","40","0"
"6.6.1","mac","0","2023-02-06","13:25:30","427238224","1","null","experiment","2","dispFeedback_U","1000","1","94","DEV","POS","1","81","0.3649086222139867886","29.5526336544039551768","0","0.426336473186113063","94","20","45","4","0","10","0","1","43","15","5","27","0","2936","514","40","0"
"6.6.1","mac","0","2023-02-06","13:25:30","427238224","1","null","experiment","2","experiment_noU","2122","1","22","DEV","POS","1","","","","","","22","20","45","4","0","10","0","1","43","15","5","27","0","2936","514","40","0"
"6.6.1","mac","0","2023-02-06","13:25:30","427238224","1","null","experiment","2","dispFeedback_noU","1000","1","22","DEV","POS","1","85","0.2398792888634693199","20.2722340597992953803","85","0.0032408481936996914","22","20","45","4","0","10","0","1","43","16","5","27","0","4472","599","46","6"
"6.6.1","mac","0","2023-02-06","13:25:30","427238224","1","null","experiment","2","experiment_noU","2981","1","4","DEV","POS","1","","","","","","4","20","45","4","0","10","0","1","43","16","5","27","0","4472","599","46","6"
"6.6.1","mac","0","2023-02-06","13:25:30","427238224","1","null","experiment","2","dispFeedback_noU","1000","1","4","DEV","POS","1","82","0.2436411178908181041","20.0834734235994929463","0","0.2862029788750696246","4","20","45","4","0","10","0","1","43","17","5","27","0","4431","599","46","0"
"6.6.1","mac","0","2023-02-06","13:25:30","427238224","1","null","experiment","2","experiment_noU","413","1","65","DEV","POS","1","","","","","","65","20","45","4","0","10","0","1","43","17","5","27","0","4431","599","46","0"
"6.6.1","mac","0","2023-02-06","13:25:30","427238224","1","null","experiment","2","dispFeedback_noU","1000","1","65","DEV","POS","1","90","0.1954363994556222173","17.6534584664081179994","0","0.3729356658581960415","65","20","45","4","0","10","0","1","43","18","5","27","0","4913","599","46","0"
"6.6.1","mac","0","2023-02-06","13:25:30","427238224","1","null","experiment","2","experiment_noU","2183","1","13","DEV","POS","1","","","","","","13","20","45","4","0","10","0","1","43","18","5","27","0","4913","599","46","0"
"6.6.1","mac","0","2023-02-06","13:25:30","427238224","1","null","experiment","2","dispFeedback_noU","1000","1","13","DEV","POS","1","87","0.2735766381477782172","23.7268182625596466551","0","0.7674555952584966034","13","20","45","4","0","10","0","1","43","19","5","27","0","4083","599","46","0"
"6.6.1","mac","0","2023-02-06","13:25:30","427238224","1","null","experiment","2","experiment_noU","1856","1","22","DEV","POS","1","","","","","","22","20","45","4","0","10","0","1","43","19","5","27","0","4083","599","46","0"
"6.6.1","mac","0","2023-02-06","13:25:30","427238224","1","null","experiment","2","dispFeedback_noU","1000","1","22","DEV","POS","1","84","0.2633618819136857581","22.1176950296246843664","0","0.9097900744317541921","22","20","45","4","0","10","0","1","43","20","5","27","0","4206","599","46","0"
"6.6.1","mac","0","2023-02-06","13:25:30","427238224","1","null","experiment","2","experiment_noU","2059","1","60","DEV","POS","1","","","","","","60","20","45","4","0","10","0","1","43","20","5","27","0","4206","599","46","0"
"6.6.1","mac","0","2023-02-06","13:25:30","427238224","1","null","experiment","2","dispFeedback_noU","1000","1","60","DEV","POS","1","76","0.582373413598137768","44.2917831325048751978","0","0.7466630485715957111","60","20","45","4","0","10","0","1","43","21","5","27","0","1309","599","46","0"
"6.6.1","mac","0","2023-02-06","13:25:30","427238224","1","null","experiment","2","experiment_noU","1921","1","70","DEV","POS","1","","","","","","70","20","45","4","0","10","0","1","43","21","5","27","0","1309","599","46","0"
"6.6.1","mac","0","2023-02-06","13:25:30","427238224","1","null","experiment","2","dispFeedback_noU","1000","1","70","DEV","POS","1","73","0.5178886268581741614","37.6560294899607868047","73","0.080239971885513503","70","20","45","4","0","10","0","1","43","22","5","27","0","1671","672","51","5"
"6.6.1","mac","0","2023-02-06","13:25:30","427238224","1","null","experiment","2","experiment_noU","1724","1","78","DEV","POS","1","","","","","","78","20","45","4","0","10","0","1","43","22","5","27","0","1671","672","51","5"
"6.6.1","mac","0","2023-02-06","13:25:30","427238224","1","null","experiment","2","dispFeedback_noU","1000","1","78","DEV","POS","1","81","0.4862847933935056099","39.1615666746766919459","81","0.4477050074952899084","78","20","45","4","0","10","0","1","43","23","5","27","0","1874","753","57","6"
"6.6.1","mac","0","2023-02-06","13:25:30","427238224","1","null","experiment","2","experiment_noU","2435","1","65","DEV","POS","1","","","","","","65","20","45","4","0","10","0","1","43","23","5","27","0","1874","753","57","6"
"6.6.1","mac","0","2023-02-06","13:25:30","427238224","1","null","experiment","2","dispFeedback_noU","1000","1","65","DEV","POS","1","83","0.4773990368059845002","39.5125922926105204169","83","0.0171535795128796194","65","20","45","4","0","10","0","1","43","24","5","27","0","1935","836","63","6"
"6.6.1","mac","0","2023-02-06","13:25:30","427238224","1","null","experiment","2","experiment_noU","1335","1","86","DEV","POS","1","","","","","","86","20","45","4","0","10","0","1","43","24","5","27","0","1935","836","63","6"
"6.6.1","mac","0","2023-02-06","13:25:30","427238224","1","null","experiment","2","dispFeedback_noU","1000","1","86","DEV","POS","1","81","0.4846620253303864923","39.0515495726024326473","81","0.352252974722593315","86","20","45","4","0","10","0","1","43","25","5","27","0","1885","917","69","6"
"6.6.1","mac","0","2023-02-06","13:25:30","427238224","1","null","experiment","2","experiment_noU","2942","1","56","DEV","POS","1","","","","","","56","20","45","4","0","10","0","1","43","25","5","27","0","1885","917","69","6"
"6.6.1","mac","0","2023-02-06","13:25:30","427238224","1","null","experiment","2","dispFeedback_noU","1000","1","56","DEV","POS","1","84","0.4693425652676846971","39.4155749168329947452","84","0.1515692223681996686","56","20","45","4","0","10","0","1","43","26","5","27","0","1992","1001","75","6"
"6.6.1","mac","0","2023-02-06","13:25:30","427238224","1","null","experiment","2","experiment_noU","3115","1","51","DEV","POS","1","","","","","","51","20","45","4","0","10","0","1","43","26","5","27","0","1992","1001","75","6"
"6.6.1","mac","0","2023-02-06","13:25:30","427238224","1","null","experiment","2","dispFeedback_noU","1000","1","51","DEV","POS","1","83","0.4802820602107269465","39.7146166206737163407","83","0.0733626862227364229","51","20","45","4","0","10","0","1","43","27","5","27","2","1915","1084","81","6"
"6.6.1","mac","0","2023-02-06","13:25:30","427238224","1","null","experiment","2","experiment_U","4555","1","0","DEV","POS","1","","","","","","0","20","45","4","0","10","0","1","43","27","5","27","2","1915","1084","81","6"
"6.6.1","mac","0","2023-02-06","13:25:30","427238224","1","null","experiment","2","dispFeedback_U","1000","1","0","DEV","POS","1","77","0.689916032921786937","53.2377030625192517732","0","0.8486518554502753275","0","20","45","4","1","10","1","1","43","28","5","27","2","805","1084","81","0"
"6.6.1","mac","0","2023-02-06","13:25:30","427238224","1","null","experiment","2","experiment_U","1620","1","93","DEV","POS","1","","","","","","93","20","45","4","1","10","1","1","43","28","5","27","2","805","1084","81","0"
"6.6.1","mac","0","2023-02-06","13:25:30","427238224","1","null","experiment","2","dispFeedback_U","1000","1","93","DEV","POS","1","83","0.4050106590324848987","33.5232856487638599674","0","0.5883284149664287366","93","20","45","4","1","10","2","1","43","29","5","27","2","2520","1084","81","0"
"6.6.1","mac","0","2023-02-06","13:25:30","427238224","1","null","experiment","2","experiment_U","3810","1","14","DEV","POS","1","","","","","","14","20","45","4","1","10","2","1","43","29","5","27","2","2520","1084","81","0"
"6.6.1","mac","0","2023-02-06","13:25:30","427238224","1","null","experiment","2","dispFeedback_U","1000","1","14","DEV","POS","1","73","0.7004974132913198703","51.039584488936647233","73","0.0495420212507112906","14","20","45","4","2","10","3","1","43","30","5","27","2","760","1157","86","5"
"6.6.1","mac","0","2023-02-06","13:25:30","427238224","1","null","experiment","2","experiment_U","1295","1","65","DEV","POS","1","","","","","","65","20","45","4","2","10","3","1","43","30","5","27","2","760","1157","86","5"
"6.6.1","mac","0","2023-02-06","13:25:30","427238224","1","null","experiment","2","dispFeedback_U","1000","1","65","DEV","POS","1","77","0.6922540837121640145","53.371969434990148784","77","0.4380539884879379731","65","20","45","4","3","10","4","1","43","31","5","27","2","795","1234","92","6"
"6.6.1","mac","0","2023-02-06","13:25:30","427238224","1","null","experiment","2","experiment_U","1432","1","62","DEV","POS","1","","","","","","62","20","45","4","3","10","4","1","43","31","5","27","2","795","1234","92","6"
"6.6.1","mac","0","2023-02-06","13:25:30","427238224","1","null","experiment","2","dispFeedback_U","1000","1","62","DEV","POS","1","72","0.6953049942338367373","50.0699403362773409754","72","0.5007017083700517901","62","20","45","4","4","10","5","1","43","32","5","27","0","782","1306","97","5"
"6.6.1","mac","0","2023-02-06","13:25:30","427238224","1","null","experiment","2","experiment_noU","1543","1","94","DEV","POS","1","","","","","","94","20","45","4","4","10","5","1","43","32","5","27","0","782","1306","97","5"
"6.6.1","mac","0","2023-02-06","13:25:30","427238224","1","null","experiment","2","dispFeedback_noU","1000","1","94","DEV","POS","1","81","0.4078941722161755212","32.9118231227464690392","0","0.8512566173102839029","94","20","45","4","4","10","5","1","43","33","5","27","0","2493","1306","97","0"
"6.6.1","mac","0","2023-02-06","13:25:30","427238224","1","null","experiment","2","experiment_noU","857","1","82","DEV","POS","1","","","","","","82","20","45","4","4","10","5","1","43","33","5","27","0","2493","1306","97","0"
"6.6.1","mac","0","2023-02-06","13:25:30","427238224","1","null","experiment","2","dispFeedback_noU","1000","1","82","DEV","POS","1","76","0.6024752261408083953","45.5066805581545068549","76","0.1195580407789810645","82","20","45","4","4","10","5","1","43","34","5","27","0","1207","1382","103","6"
"6.6.1","mac","0","2023-02-06","13:25:30","427238224","1","null","experiment","2","experiment_noU","1306","1","100","DEV","POS","1","","","","","","100","20","45","4","4","10","5","1","43","34","5","27","0","1207","1382","103","6"
"6.6.1","mac","0","2023-02-06","13:25:30","427238224","1","null","experiment","2","dispFeedback_noU","1000","1","100","DEV","POS","1","86","0.4012256206330834241","34.4582783304471007568","0","0.455273324031213622","100","20","45","4","4","10","5","1","43","35","5","27","0","2556","1382","103","0"
"6.6.1","mac","0","2023-02-06","13:25:30","427238224","1","null","experiment","2","experiment_noU","2038","1","10","DEV","POS","1","","","","","","10","20","45","4","4","10","5","1","43","35","5","27","0","2556","1382","103","0"
"6.6.1","mac","0","2023-02-06","13:25:30","427238224","1","null","experiment","2","dispFeedback_noU","1000","1","10","DEV","POS","1","87","0.2969521424377232766","25.8620444753495704049","87","0.0353613412090021534","10","20","45","4","4","10","5","1","43","36","5","27","0","3788","1469","109","6"
"6.6.1","mac","0","2023-02-06","13:25:30","427238224","1","null","experiment","2","experiment_noU","1125","1","68","DEV","POS","1","","","","","","68","20","45","4","4","10","5","1","43","36","5","27","0","3788","1469","109","6"
"6.6.1","mac","0","2023-02-06","13:25:30","427238224","1","null","experiment","2","dispFeedback_noU","1000","1","68","DEV","POS","1","75","0.6969531348646547109","52.2464872791297665344","75","0.6649273744935466635","68","20","45","4","4","10","5","1","43","37","5","27","0","775","1544","115","6"
"6.6.1","mac","0","2023-02-06","13:25:30","427238224","1","null","experiment","2","experiment_noU","1277","1","64","DEV","POS","1","","","","","","64","20","45","4","4","10","5","1","43","37","5","27","0","775","1544","115","6"
"6.6.1","mac","0","2023-02-06","13:25:30","427238224","1","null","experiment","2","dispFeedback_noU","1000","1","64","DEV","POS","1","71","0.7083547086694519379","50.033427934241153423","71","0.0691012286276326548","64","20","45","4","4","10","5","1","43","38","5","27","0","727","1615","120","5"
"6.6.1","mac","0","2023-02-06","13:25:30","427238224","1","null","experiment","2","experiment_noU","1358","1","38","DEV","POS","1","","","","","","38","20","45","4","4","10","5","1","43","38","5","27","0","727","1615","120","5"
"6.6.1","mac","0","2023-02-06","13:25:30","427238224","1","null","experiment","2","dispFeedback_noU","1000","1","38","DEV","POS","1","86","0.2365291149305664975","20.2420461914411831117","0","0.8280664486410250769","38","20","45","4","4","10","5","1","43","39","5","27","0","4508","1615","120","0"
"6.6.1","mac","0","2023-02-06","13:25:30","427238224","1","null","experiment","2","experiment_noU","1723","1","39","DEV","POS","1","","","","","","39","20","45","4","4","10","5","1","43","39","5","27","0","4508","1615","120","0"
"6.6.1","mac","0","2023-02-06","13:25:30","427238224","1","null","experiment","2","dispFeedback_noU","1000","1","39","DEV","POS","1","89","0.194335928598512786","17.3631779258787446452","89","0.1314344914004752507","39","20","45","4","4","10","5","1","43","40","5","27","0","4923","1704","127","7"
"6.6.1","mac","0","2023-02-06","13:25:30","427238224","1","null","experiment","2","experiment_noU","2074","1","31","DEV","POS","1","","","","","","31","20","45","4","4","10","5","1","43","40","5","27","0","4923","1704","127","7"
"6.6.1","mac","0","2023-02-06","13:25:30","427238224","1","null","experiment","2","dispFeedback_noU","1000","1","31","DEV","POS","1","87","0.199686576122321241","17.4243874615850025123","0","0.4420341445230958621","31","20","45","4","4","10","5","1","43","41","5","27","0","4874","1704","127","0"
"6.6.1","mac","0","2023-02-06","13:25:30","427238224","1","null","experiment","2","experiment_noU","1873","1","30","DEV","POS","1","","","","","","30","20","45","4","4","10","5","1","43","41","5","27","0","4874","1704","127","0"
"6.6.1","mac","0","2023-02-06","13:25:30","427238224","1","null","experiment","2","dispFeedback_noU","1000","1","30","DEV","POS","1","89","0.225516545756935971","20.0254009401604378127","89","0.1439831499345561316","30","20","45","4","4","10","5","1","43","42","5","27","0","4623","1793","134","7"
"6.6.1","mac","0","2023-02-06","13:25:30","427238224","1","null","experiment","2","experiment_noU","2509","1","19","DEV","POS","1","","","","","","19","20","45","4","4","10","5","1","43","42","5","27","0","4623","1793","134","7"
"6.6.1","mac","0","2023-02-06","13:25:30","427238224","1","null","experiment","2","dispFeedback_noU","1000","1","19","DEV","POS","1","83","0.2169542350478339821","17.9981317629296100336","0","0.2464690711923104294","19","20","45","4","4","10","5","1","43","43","5","27","0","4709","1793","134","0"
"6.6.1","mac","0","2023-02-06","13:25:30","427238224","1","null","experiment","3","experiment_noU","1293","1","43","CEVR","POS","1","","","","","","43","15","50","0","0","0","0","2","42","0","6","30","0","4709","1793","134","0"
"6.6.1","mac","0","2023-02-06","13:25:30","427238224","1","null","experiment","3","dispFeedback_noU","1000","1","43","CEVR","POS","1","50","0.8058494088363410413","40.223397635345364165","50","0.5104471010878791626","43","15","50","0","0","0","0","2","42","1","6","30","0","4693","1843","138","4"
"6.6.1","mac","0","2023-02-06","13:25:30","427238224","1","null","experiment","3","experiment_noU","3199","1","87","CEVR","POS","1","","","","","","87","15","50","0","0","0","0","2","42","1","6","30","0","4693","1843","138","4"
"6.6.1","mac","0","2023-02-06","13:25:30","427238224","1","null","experiment","3","dispFeedback_noU","1000","1","87","CEVR","POS","1","71","0.5177928828468612021","37","71","0.3424736325029455464","87","15","50","0","0","0","0","2","42","2","6","30","0","3799","1914","143","5"
"6.6.1","mac","0","2023-02-06","13:25:30","427238224","1","null","experiment","3","experiment_noU","959","1","31","CEVR","POS","1","","","","","","31","15","50","0","0","0","0","2","42","2","6","30","0","3799","1914","143","5"
"6.6.1","mac","0","2023-02-06","13:25:30","427238224","1","null","experiment","3","dispFeedback_noU","1000","1","31","CEVR","POS","1","78","0.5096418732782369565","39.5482093663911840054","78","0.2374192381364803872","31","15","50","0","0","0","0","2","42","3","6","30","0","3759","1992","149","6"
"6.6.1","mac","0","2023-02-06","13:25:30","427238224","1","null","experiment","3","experiment_noU","4590","1","78","CEVR","POS","1","","","","","","78","15","50","0","0","0","0","2","42","3","6","30","0","3759","1992","149","6"
"6.6.1","mac","0","2023-02-06","13:25:30","427238224","1","null","experiment","3","dispFeedback_noU","1000","1","78","CEVR","POS","1","42","0.8301282051282050656","34.5096153846153796962","0","0.9959376468313713149","78","15","50","0","0","0","0","2","42","4","6","30","0","4740","1992","149","0"
"6.6.1","mac","0","2023-02-06","13:25:30","427238224","1","null","experiment","3","experiment_noU","2937","1","10","CEVR","POS","1","","","","","","10","15","50","0","0","0","0","2","42","4","6","30","0","4740","1992","149","0"
"6.6.1","mac","0","2023-02-06","13:25:30","427238224","1","null","experiment","3","dispFeedback_noU","1000","1","10","CEVR","POS","1","48","0.8028518288902666278","38.6057036577805376965","48","0.2847334685001367549","10","15","50","0","0","0","0","2","42","5","6","30","0","4687","2040","153","4"
"6.6.1","mac","0","2023-02-06","13:25:30","427238224","1","null","experiment","3","experiment_noU","4716","1","75","CEVR","POS","1","","","","","","75","15","50","0","0","0","0","2","42","5","6","30","0","4687","2040","153","4"
"6.6.1","mac","0","2023-02-06","13:25:30","427238224","1","null","experiment","3","dispFeedback_noU","1000","1","75","CEVR","POS","1","41","0.817550505050505083","33.7297979797979863292","41","0.0570029479118536603","75","15","50","0","0","0","0","2","42","6","6","30","1","4716","2081","156","3"
"6.6.1","mac","0","2023-02-06","13:25:30","427238224","1","null","experiment","3","experiment_U","1482","1","38","CEVR","POS","1","","","","","","38","15","50","0","0","0","0","2","42","6","6","30","1","4716","2081","156","3"
"6.6.1","mac","0","2023-02-06","13:25:30","427238224","1","null","experiment","3","dispFeedback_U","1000","1","38","CEVR","POS","1","52","0.7763788968824940628","40.1055155875299860213","0","0.7966783425762966608","38","15","50","0","0","1","0","2","42","7","6","30","1","4632","2081","156","0"
"6.6.1","mac","0","2023-02-06","13:25:30","427238224","1","null","experiment","3","experiment_U","1731","1","7","CEVR","POS","1","","","","","","7","15","50","0","0","1","0","2","42","7","6","30","1","4632","2081","156","0"
"6.6.1","mac","0","2023-02-06","13:25:30","427238224","1","null","experiment","3","dispFeedback_U","1000","1","7","CEVR","POS","1","82","0.4361737958908723511","35.6914786123273870544","82","0.2095556802138582864","7","15","50","1","0","2","0","2","42","8","6","30","1","3331","2163","162","6"
"6.6.1","mac","0","2023-02-06","13:25:30","427238224","1","null","experiment","3","experiment_U","5186","1","66","CEVR","POS","1","","","","","","66","15","50","1","0","2","0","2","42","8","6","30","1","3331","2163","162","6"
"6.6.1","mac","0","2023-02-06","13:25:30","427238224","1","null","experiment","3","dispFeedback_U","1000","1","66","CEVR","POS","1","48","0.8280051150895140211","39.4840153452685385105","48","0.1121084534358485763","66","15","50","1","0","3","0","2","42","9","6","30","1","4736","2211","166","4"
"6.6.1","mac","0","2023-02-06","13:25:30","427238224","1","null","experiment","3","experiment_U","1401","1","14","CEVR","POS","1","","","","","","14","15","50","1","0","3","0","2","42","9","6","30","1","4736","2211","166","4"
"6.6.1","mac","0","2023-02-06","13:25:30","427238224","1","null","experiment","3","dispFeedback_U","1000","1","14","CEVR","POS","1","85","0.4391319091217361636","37.4391319091217340542","0","0.9237788468421853638","14","15","50","2","0","4","0","2","42","10","6","30","1","3351","2211","166","0"
"6.6.1","mac","0","2023-02-06","13:25:30","427238224","1","null","experiment","3","experiment_U","3362","1","76","CEVR","POS","1","","","","","","76","15","50","2","0","4","0","2","42","10","6","30","1","3351","2211","166","0"
"6.6.1","mac","0","2023-02-06","13:25:30","427238224","1","null","experiment","3","dispFeedback_U","1000","1","76","CEVR","POS","1","80","0.4484072022160664472","35.6547783933517976607","80","0.4249326645920362133","76","15","50","3","0","5","0","2","42","11","6","30","1","3412","2291","172","6"
"6.6.1","mac","0","2023-02-06","13:25:30","427238224","1","null","experiment","3","experiment_U","2172","1","99","CEVR","POS","1","","","","","","99","15","50","3","0","5","0","2","42","11","6","30","1","3412","2291","172","6"
"6.6.1","mac","0","2023-02-06","13:25:30","427238224","1","null","experiment","3","dispFeedback_U","1000","1","99","CEVR","POS","1","85","0.4422814207650273555","37.442281420765027633","0","0.9611742601173870471","99","15","50","4","0","6","0","2","42","12","6","30","0","3372","2291","172","0"
"6.6.1","mac","0","2023-02-06","13:25:30","427238224","1","null","experiment","3","experiment_noU","1399","1","41","CEVR","POS","1","","","","","","41","15","50","4","0","6","0","2","42","12","6","30","0","3372","2291","172","0"
"6.6.1","mac","0","2023-02-06","13:25:30","427238224","1","null","experiment","3","dispFeedback_noU","1000","1","41","CEVR","POS","1","46","0.8088694565896313859","37.0000000000000071054","46","0.6195125578948093015","41","15","50","4","0","6","0","2","42","13","6","30","0","4699","2337","175","3"
"6.6.1","mac","0","2023-02-06","13:25:30","427238224","1","null","experiment","3","experiment_noU","2860","1","44","CEVR","POS","1","","","","","","44","15","50","4","0","6","0","2","42","13","6","30","0","4699","2337","175","3"
"6.6.1","mac","0","2023-02-06","13:25:30","427238224","1","null","experiment","3","dispFeedback_noU","1000","1","44","CEVR","POS","1","144","0.2595190380761522864","37.2595190380761493998","144","0.1719675104068516536","44","15","50","4","0","6","0","2","42","14","6","30","0","1310","2481","185","10"
"6.6.1","mac","0","2023-02-06","13:25:30","427238224","1","null","experiment","3","experiment_noU","1588","1","69","CEVR","POS","1","","","","","","69","15","50","4","0","6","0","2","42","14","6","30","0","1310","2481","185","10"
"6.6.1","mac","0","2023-02-06","13:25:30","427238224","1","null","experiment","3","dispFeedback_noU","1000","1","69","CEVR","POS","1","142","0.2583798882681564435","36.7416201117318408365","0","0.8583920735070463826","69","15","50","4","0","6","0","2","42","15","6","30","0","1288","2481","185","0"
"6.6.1","mac","0","2023-02-06","13:25:30","427238224","1","null","experiment","3","experiment_noU","1288","1","1","CEVR","POS","1","","","","","","1","15","50","4","0","6","0","2","42","15","6","30","0","1288","2481","185","0"
"6.6.1","mac","0","2023-02-06","13:25:30","427238224","1","null","experiment","3","dispFeedback_noU","1000","1","1","CEVR","POS","1","109","0.3488685344827586743","38.0466056034482775772","109","0.018664708831036627","1","15","50","4","0","6","0","2","42","16","6","30","0","2588","2590","193","8"
"6.6.1","mac","0","2023-02-06","13:25:30","427238224","1","null","experiment","3","experiment_noU","1366","1","40","CEVR","POS","1","","","","","","40","15","50","4","0","6","0","2","42","16","6","30","0","2588","2590","193","8"
"6.6.1","mac","0","2023-02-06","13:25:30","427238224","1","null","experiment","3","dispFeedback_noU","1000","1","40","CEVR","POS","1","47","0.7690023752969120663","36.2309976247030789409","47","0.0244047320504683848","40","15","50","4","0","6","0","2","42","17","6","30","0","4616","2637","197","4"
"6.6.1","mac","0","2023-02-06","13:25:30","427238224","1","null","experiment","3","experiment_noU","2349","1","58","CEVR","POS","1","","","","","","58","15","50","4","0","6","0","2","42","17","6","30","0","4616","2637","197","4"
"6.6.1","mac","0","2023-02-06","13:25:30","427238224","1","null","experiment","3","dispFeedback_noU","1000","1","58","CEVR","POS","1","140","0.2697354717767131982","37.8092064153301450347","140","0.105878647674312501","58","15","50","4","0","6","0","2","42","18","6","30","0","1499","2777","207","10"
"6.6.1","mac","0","2023-02-06","13:25:30","427238224","1","null","experiment","3","experiment_noU","467","1","95","CEVR","POS","1","","","","","","95","15","50","4","0","6","0","2","42","18","6","30","0","1499","2777","207","10"
"6.6.1","mac","0","2023-02-06","13:25:30","427238224","1","null","experiment","3","dispFeedback_noU","1000","1","95","CEVR","POS","1","137","0.2679495137595696019","36.7320504862404249025","0","0.3858720963787921066","95","15","50","4","0","6","0","2","42","19","6","30","0","1467","2777","207","0"
"6.6.1","mac","0","2023-02-06","13:25:30","427238224","1","null","experiment","3","experiment_noU","1121","1","96","CEVR","POS","1","","","","","","96","15","50","4","0","6","0","2","42","19","6","30","0","1467","2777","207","0"
"6.6.1","mac","0","2023-02-06","13:25:30","427238224","1","null","experiment","3","dispFeedback_noU","1000","1","96","CEVR","POS","1","120","0.3136352627754904199","37.6272705255509833933","0","0.9515539375021014878","96","15","50","4","0","6","0","2","42","20","6","30","0","2171","2777","207","0"
"6.6.1","mac","0","2023-02-06","13:25:30","427238224","1","null","experiment","3","experiment_noU","4396","1","18","CEVR","POS","1","","","","","","18","15","50","4","0","6","0","2","42","20","6","30","0","2171","2777","207","0"
"6.6.1","mac","0","2023-02-06","13:25:30","427238224","1","null","experiment","3","dispFeedback_noU","1000","1","18","CEVR","POS","1","134","0.2724021876314682289","36.4551956247370583242","134","0.0873420688061374434","18","15","50","4","0","6","0","2","42","21","6","30","0","1546","2911","216","9"
"6.6.1","mac","0","2023-02-06","13:25:30","427238224","1","null","experiment","3","experiment_noU","3231","1","40","CEVR","POS","1","","","","","","40","15","50","4","0","6","0","2","42","21","6","30","0","1546","2911","216","9"
"6.6.1","mac","0","2023-02-06","13:25:30","427238224","1","null","experiment","3","dispFeedback_noU","1000","1","40","CEVR","POS","1","133","0.268727951857231806","35.6563602407138446893","0","0.462408847981693405","40","15","50","4","0","6","0","2","42","22","6","30","0","1481","2911","216","0"
"6.6.1","mac","0","2023-02-06","13:25:30","427238224","1","null","experiment","3","experiment_noU","1138","1","80","CEVR","POS","1","","","","","","80","15","50","4","0","6","0","2","42","22","6","30","0","1481","2911","216","0"
"6.6.1","mac","0","2023-02-06","13:25:30","427238224","1","null","experiment","3","dispFeedback_noU","1000","1","80","CEVR","POS","1","140","0.2636400651465797829","37","0","0.9526848776621476","80","15","50","4","0","6","0","2","42","23","6","30","0","1388","2911","216","0"
"6.6.1","mac","0","2023-02-06","13:25:30","427238224","1","null","experiment","3","experiment_noU","2976","1","46","CEVR","POS","1","","","","","","46","15","50","4","0","6","0","2","42","23","6","30","0","1388","2911","216","0"
"6.6.1","mac","0","2023-02-06","13:25:30","427238224","1","null","experiment","3","dispFeedback_noU","1000","1","46","CEVR","POS","1","135","0.2712609970674486615","36.7287390029325422347","0","0.8871306385582151677","46","15","50","4","0","6","0","2","42","24","6","30","0","1526","2911","216","0"
"6.6.1","mac","0","2023-02-06","13:25:30","427238224","1","null","experiment","3","experiment_noU","540","1","1","CEVR","POS","1","","","","","","1","15","50","4","0","6","0","2","42","24","6","30","0","1526","2911","216","0"
"6.6.1","mac","0","2023-02-06","13:25:30","427238224","1","null","experiment","3","dispFeedback_noU","1000","1","1","CEVR","POS","1","123","0.2903587443946188396","35.8385650224215268622","0","0.6010813761039360825","1","15","50","4","0","6","0","2","42","25","6","30","0","1840","2911","216","0"
"6.6.1","mac","0","2023-02-06","13:25:30","427238224","1","null","experiment","3","experiment_noU","4626","1","75","CEVR","POS","1","","","","","","75","15","50","4","0","6","0","2","42","25","6","30","0","1840","2911","216","0"
"6.6.1","mac","0","2023-02-06","13:25:30","427238224","1","null","experiment","3","dispFeedback_noU","1000","1","75","CEVR","POS","1","44","0.773596176821983339","33.9056152927120635354","44","0.7284818419088799901","75","15","50","4","0","6","0","2","42","26","6","30","0","4626","2955","219","3"
"6.6.1","mac","0","2023-02-06","13:25:30","427238224","1","null","experiment","3","experiment_noU","3327","1","0","CEVR","POS","1","","","","","","0","15","50","4","0","6","0","2","42","26","6","30","0","4626","2955","219","3"
"6.6.1","mac","0","2023-02-06","13:25:30","427238224","1","null","experiment","3","dispFeedback_noU","1000","1","0","CEVR","POS","1","45","0.7515960533952409373","33.9936157864190349187","45","0.2576435520913553101","0","15","50","4","0","6","0","2","42","27","6","30","0","4577","3000","222","3"
"6.6.1","mac","0","2023-02-06","13:25:30","427238224","1","null","experiment","3","experiment_noU","1594","1","70","CEVR","POS","1","","","","","","70","15","50","4","0","6","0","2","42","27","6","30","0","4577","3000","222","3"
"6.6.1","mac","0","2023-02-06","13:25:30","427238224","1","null","experiment","3","dispFeedback_noU","1000","1","70","CEVR","POS","1","139","0.2612994350282485945","36.2161016949152525513","0","0.9007300762228505064","70","15","50","4","0","6","0","2","42","28","6","30","0","1344","3000","222","0"
"6.6.1","mac","0","2023-02-06","13:25:30","427238224","1","null","experiment","3","experiment_noU","810","1","52","CEVR","POS","1","","","","","","52","15","50","4","0","6","0","2","42","28","6","30","0","1344","3000","222","0"
"6.6.1","mac","0","2023-02-06","13:25:30","427238224","1","null","experiment","3","dispFeedback_noU","1000","1","52","CEVR","POS","1","47","0.7896341463414634498","37.0000000000000071054","47","0.5365423302949737794","52","15","50","4","0","6","0","2","42","29","6","30","0","4660","3047","226","4"
"6.6.1","mac","0","2023-02-06","13:25:30","427238224","1","null","experiment","3","experiment_noU","2854","1","9","CEVR","POS","1","","","","","","9","15","50","4","0","6","0","2","42","29","6","30","0","4660","3047","226","4"
"6.6.1","mac","0","2023-02-06","13:25:30","427238224","1","null","experiment","3","dispFeedback_noU","1000","1","9","CEVR","POS","1","46","0.7416953035509736836","34.0332187857961088184","46","0.1982338084369510978","9","15","50","4","0","6","0","2","42","30","6","30","2","4554","3093","229","3"
"6.6.1","mac","0","2023-02-06","13:25:30","427238224","1","null","experiment","3","experiment_U","2846","1","94","CEVR","POS","1","","","","","","94","15","50","4","0","6","0","2","42","30","6","30","2","4554","3093","229","3"
"6.6.1","mac","0","2023-02-06","13:25:30","427238224","1","null","experiment","3","dispFeedback_U","1000","1","94","CEVR","POS","1","71","0.5171725239616613568","36.4828274760383450825","71","0.499154849792633859","94","15","50","4","0","6","1","2","42","31","6","30","2","3796","3164","234","5"
"6.6.1","mac","0","2023-02-06","13:25:30","427238224","1","null","experiment","3","experiment_U","1535","1","51","CEVR","POS","1","","","","","","51","15","50","4","0","6","1","2","42","31","6","30","2","3796","3164","234","5"
"6.6.1","mac","0","2023-02-06","13:25:30","427238224","1","null","experiment","3","dispFeedback_U","1000","1","51","CEVR","POS","1","169","0.2170997485331098154","36.7829002514668914614","0","0.6122915681014515776","51","15","50","4","1","6","2","2","42","32","6","30","2","335","3164","234","0"
"6.6.1","mac","0","2023-02-06","13:25:30","427238224","1","null","experiment","3","experiment_U","2466","1","1","CEVR","POS","1","","","","","","1","15","50","4","1","6","2","2","42","32","6","30","2","335","3164","234","0"
"6.6.1","mac","0","2023-02-06","13:25:30","427238224","1","null","experiment","3","dispFeedback_U","1000","1","1","CEVR","POS","1","77","0.5110497237569060491","39.5552486187845246945","0","0.7445973471609403926","1","15","50","4","1","6","3","2","42","33","6","30","2","3766","3164","234","0"
"6.6.1","mac","0","2023-02-06","13:25:30","427238224","1","null","experiment","3","experiment_U","3330","1","1","CEVR","POS","1","","","","","","1","15","50","4","1","6","3","2","42","33","6","30","2","3766","3164","234","0"
"6.6.1","mac","0","2023-02-06","13:25:30","427238224","1","null","experiment","3","dispFeedback_U","1000","1","1","CEVR","POS","1","53","0.7754491017964072475","40.8772455089820354601","0","0.8307467798774006429","1","15","50","4","1","6","4","2","42","34","6","30","2","4630","3164","234","0"
"6.6.1","mac","0","2023-02-06","13:25:30","427238224","1","null","experiment","3","experiment_U","1297","1","42","CEVR","POS","1","","","","","","42","15","50","4","1","6","4","2","42","34","6","30","2","4630","3164","234","0"
"6.6.1","mac","0","2023-02-06","13:25:30","427238224","1","null","experiment","3","dispFeedback_U","1000","1","42","CEVR","POS","1","44","0.7834240774349667813","34.6497277676950972136","44","0.4679280427442695789","42","15","50","4","1","6","5","2","42","35","6","30","2","4647","3208","237","3"
"6.6.1","mac","0","2023-02-06","13:25:30","427238224","1","null","experiment","3","experiment_U","1983","1","26","CEVR","POS","1","","","","","","26","15","50","4","1","6","5","2","42","35","6","30","2","4647","3208","237","3"
"6.6.1","mac","0","2023-02-06","13:25:30","427238224","1","null","experiment","3","dispFeedback_U","1000","1","26","CEVR","POS","1","45","0.732880588568194602","33.3355970571590276563","45","0.3991137350441686937","26","15","50","4","1","6","6","2","42","36","6","30","2","4533","3253","240","3"
"6.6.1","mac","0","2023-02-06","13:25:30","427238224","1","null","experiment","3","experiment_U","3853","1","91","CEVR","POS","1","","","","","","91","15","50","4","1","6","6","2","42","36","6","30","2","4533","3253","240","3"
"6.6.1","mac","0","2023-02-06","13:25:30","427238224","1","null","experiment","3","dispFeedback_U","1000","1","91","CEVR","POS","1","49","0.7862780813600486196","38.5725561627201045667","0","0.8238931155819196883","91","15","50","4","1","6","7","2","42","37","6","30","2","4653","3253","240","0"
"6.6.1","mac","0","2023-02-06","13:25:30","427238224","1","null","experiment","3","experiment_U","1202","1","45","CEVR","POS","1","","","","","","45","15","50","4","1","6","7","2","42","37","6","30","2","4653","3253","240","0"
"6.6.1","mac","0","2023-02-06","13:25:30","427238224","1","null","experiment","3","dispFeedback_U","1000","1","45","CEVR","POS","1","48","0.8103879849812265501","38.6207759699624588734","48","0.4936351181225933082","45","15","50","4","1","6","8","2","42","38","6","30","2","4702","3301","244","4"
"6.6.1","mac","0","2023-02-06","13:25:30","427238224","1","null","experiment","3","experiment_U","2107","1","63","CEVR","POS","1","","","","","","63","15","50","4","1","6","8","2","42","38","6","30","2","4702","3301","244","4"
"6.6.1","mac","0","2023-02-06","13:25:30","427238224","1","null","experiment","3","dispFeedback_U","1000","1","63","CEVR","POS","1","133","0.2701856874608804526","35.9192572501564839627","0","0.6999148895730997744","63","15","50","4","1","6","9","2","42","39","6","30","2","1507","3301","244","0"
"6.6.1","mac","0","2023-02-06","13:25:30","427238224","1","null","experiment","3","experiment_U","913","1","9","CEVR","POS","1","","","","","","9","15","50","4","1","6","9","2","42","39","6","30","2","1507","3301","244","0"
"6.6.1","mac","0","2023-02-06","13:25:30","427238224","1","null","experiment","3","dispFeedback_U","1000","1","9","CEVR","POS","1","103","0.3512340656360184443","36.2975318687279653318","0","0.9792921272989576487","9","15","50","4","1","6","10","2","42","40","6","30","2","2613","3301","244","0"
"6.6.1","mac","0","2023-02-06","13:25:30","427238224","1","null","experiment","3","experiment_U","650","1","69","CEVR","POS","1","","","","","","69","15","50","4","1","6","10","2","42","40","6","30","2","2613","3301","244","0"
"6.6.1","mac","0","2023-02-06","13:25:30","427238224","1","null","experiment","3","dispFeedback_U","1000","1","69","CEVR","POS","1","174","0.2176470588235294157","37.8705882352941216595","174","0.1721406749384805368","69","15","50","4","2","6","11","2","42","41","6","30","2","350","3475","254","10"
"6.6.1","mac","0","2023-02-06","13:25:30","427238224","1","null","experiment","3","experiment_U","989","1","62","CEVR","POS","1","","","","","","62","15","50","4","2","6","11","2","42","41","6","30","2","350","3475","254","10"
"6.6.1","mac","0","2023-02-06","13:25:30","427238224","1","null","experiment","3","dispFeedback_U","1000","1","62","CEVR","POS","1","173","0.2172454286193591655","37.6517362858580781904","0","0.8918390779038516403","62","15","50","4","3","6","12","2","42","42","6","30","2","339","3475","254","0"
"6.6.1","mac","0","2023-02-06","13:25:30","427238224","1","null","experiment","4","experiment_noU","2756","1","20","CEV","POS","1","","","","","","20","35","35","0","0","0","0","3","35","0","9","29","2","339","3475","254","0"
"6.6.1","mac","0","2023-02-06","13:25:30","427238224","1","null","experiment","4","dispFeedback_noU","1000","1","20","CEV","POS","1","42","0.8991428571428571326","37.8991428571428556893","42","0.7688348981944925775","20","35","35","0","0","0","0","3","35","1","9","29","0","6","3517","257","3"
"6.6.1","mac","0","2023-02-06","13:25:30","427238224","1","null","experiment","4","experiment_noU","401","1","76","CEV","POS","1","","","","","","76","35","35","0","0","0","0","3","35","1","9","29","0","6","3517","257","3"
"6.6.1","mac","0","2023-02-06","13:25:30","427238224","1","null","experiment","4","dispFeedback_noU","1000","1","76","CEV","POS","1","47","0.8355714285714286316","39.5067142857142883372","47","0.7925198743568081516","76","35","35","0","0","0","0","3","35","2","9","29","0","451","3564","261","4"
"6.6.1","mac","0","2023-02-06","13:25:30","427238224","1","null","experiment","4","experiment_noU","537","1","83","CEV","POS","1","","","","","","83","35","35","0","0","0","0","3","35","2","9","29","0","451","3564","261","4"
"6.6.1","mac","0","2023-02-06","13:25:30","427238224","1","null","experiment","4","dispFeedback_noU","1000","1","83","CEV","POS","1","46","0.7661428571428571255","35.4677142857142797538","46","0.4463269373975524146","83","35","35","0","0","0","0","3","35","3","9","29","0","937","3610","264","3"
"6.6.1","mac","0","2023-02-06","13:25:30","427238224","1","null","experiment","4","experiment_noU","3668","1","6","CEV","POS","1","","","","","","6","35","35","0","0","0","0","3","35","3","9","29","0","937","3610","264","3"
"6.6.1","mac","0","2023-02-06","13:25:30","427238224","1","null","experiment","4","dispFeedback_noU","1000","1","6","CEV","POS","1","41","0.8688571428571428834","35.2622857142857171198","41","0.1550508949800978586","6","35","35","0","0","0","0","3","35","4","9","29","0","218","3651","267","3"
"6.6.1","mac","0","2023-02-06","13:25:30","427238224","1","null","experiment","4","experiment_noU","3723","1","94","CEV","POS","1","","","","","","94","35","35","0","0","0","0","3","35","4","9","29","0","218","3651","267","3"
"6.6.1","mac","0","2023-02-06","13:25:30","427238224","1","null","experiment","4","dispFeedback_noU","1000","1","94","CEV","POS","1","155","0.2324285714285714288","36.0702857142857098438","0","0.9819998161359689837","94","35","35","0","0","0","0","3","35","5","9","29","0","4673","3651","267","0"
"6.6.1","mac","0","2023-02-06","13:25:30","427238224","1","null","experiment","4","experiment_noU","1420","1","50","CEV","POS","1","","","","","","50","35","35","0","0","0","0","3","35","5","9","29","0","4673","3651","267","0"
"6.6.1","mac","0","2023-02-06","13:25:30","427238224","1","null","experiment","4","dispFeedback_noU","1000","1","50","CEV","POS","1","45","0.8757142857142856673","39.6271428571428501186","45","0.4840326580414624491","50","35","35","0","0","0","0","3","35","6","9","29","0","170","3696","270","3"
"6.6.1","mac","0","2023-02-06","13:25:30","427238224","1","null","experiment","4","experiment_noU","356","1","71","CEV","POS","1","","","","","","71","35","35","0","0","0","0","3","35","6","9","29","0","170","3696","270","3"
"6.6.1","mac","0","2023-02-06","13:25:30","427238224","1","null","experiment","4","dispFeedback_noU","1000","1","71","CEV","POS","1","39","0.8777142857142856691","34.3668571428571425486","39","0.7583409344680469566","71","35","35","0","0","0","0","3","35","7","9","29","0","156","3735","273","3"
"6.6.1","mac","0","2023-02-06","13:25:30","427238224","1","null","experiment","4","experiment_noU","1826","1","62","CEV","POS","1","","","","","","62","35","35","0","0","0","0","3","35","7","9","29","0","156","3735","273","3"
"6.6.1","mac","0","2023-02-06","13:25:30","427238224","1","null","experiment","4","dispFeedback_noU","1000","1","62","CEV","POS","1","53","0.731999999999999984","38.4639999999999986358","53","0.3138824231722118219","62","35","35","0","0","0","0","3","35","8","9","29","0","1176","3788","277","4"
"6.6.1","mac","0","2023-02-06","13:25:30","427238224","1","null","experiment","4","experiment_noU","2860","1","59","CEV","POS","1","","","","","","59","35","35","0","0","0","0","3","35","8","9","29","0","1176","3788","277","4"
"6.6.1","mac","0","2023-02-06","13:25:30","427238224","1","null","experiment","4","dispFeedback_noU","1000","1","59","CEV","POS","1","60","0.6057142857142856496","36.3942857142857079111","0","0.6822643886977490801","59","35","35","0","0","0","0","3","35","9","9","29","1","2060","3788","277","0"
"6.6.1","mac","0","2023-02-06","13:25:30","427238224","1","null","experiment","4","experiment_U","1334","1","9","CEV","POS","1","","","","","","9","35","35","0","0","0","0","3","35","9","9","29","1","2060","3788","277","0"
"6.6.1","mac","0","2023-02-06","13:25:30","427238224","1","null","experiment","4","dispFeedback_U","1000","1","9","CEV","POS","1","79","0.4665714285714285259","37","79","0.4473881894832915096","9","35","35","0","0","1","0","3","35","10","9","29","1","3034","3867","283","6"
"6.6.1","mac","0","2023-02-06","13:25:30","427238224","1","null","experiment","4","experiment_U","1057","1","13","CEV","POS","1","","","","","","13","35","35","0","0","1","0","3","35","10","9","29","1","3034","3867","283","6"
"6.6.1","mac","0","2023-02-06","13:25:30","427238224","1","null","experiment","4","dispFeedback_U","1000","1","13","CEV","POS","1","72","0.4775714285714285356","34.6121428571428566556","0","0.6034006705981215246","13","35","35","0","0","2","0","3","35","11","9","29","1","2957","3867","283","0"
"6.6.1","mac","0","2023-02-06","13:25:30","427238224","1","null","experiment","4","experiment_U","1141","1","11","CEV","POS","1","","","","","","11","35","35","0","0","2","0","3","35","11","9","29","1","2957","3867","283","0"
"6.6.1","mac","0","2023-02-06","13:25:30","427238224","1","null","experiment","4","dispFeedback_U","1000","1","11","CEV","POS","1","75","0.479857142857142871","36.0402857142857158124","75","0.4637906992490847258","11","35","35","0","0","3","0","3","35","12","9","29","1","2941","3942","289","6"
"6.6.1","mac","0","2023-02-06","13:25:30","427238224","1","null","experiment","4","experiment_U","580","1","99","CEV","POS","1","","","","","","99","35","35","0","0","3","0","3","35","12","9","29","1","2941","3942","289","6"
"6.6.1","mac","0","2023-02-06","13:25:30","427238224","1","null","experiment","4","dispFeedback_U","1000","1","99","CEV","POS","1","57","0.6457142857142856851","37","0","0.9255246745714742485","99","35","35","1","0","4","0","3","35","13","9","29","1","1780","3942","289","0"
"6.6.1","mac","0","2023-02-06","13:25:30","427238224","1","null","experiment","4","experiment_U","1844","1","70","CEV","POS","1","","","","","","70","35","35","1","0","4","0","3","35","13","9","29","1","1780","3942","289","0"
"6.6.1","mac","0","2023-02-06","13:25:30","427238224","1","null","experiment","4","dispFeedback_U","1000","1","70","CEV","POS","1","57","0.6722857142857142643","38.3445714285714274183","0","0.9705488344120207778","70","35","35","2","0","5","0","3","35","14","9","29","1","1594","3942","289","0"
"6.6.1","mac","0","2023-02-06","13:25:30","427238224","1","null","experiment","4","experiment_U","2356","1","90","CEV","POS","1","","","","","","90","35","35","2","0","5","0","3","35","14","9","29","1","1594","3942","289","0"
"6.6.1","mac","0","2023-02-06","13:25:30","427238224","1","null","experiment","4","dispFeedback_U","1000","1","90","CEV","POS","1","78","0.4562857142857142945","35.6311428571428550072","0","0.6935411853933569626","90","35","35","2","0","6","0","3","35","15","9","29","1","3106","3942","289","0"
"6.6.1","mac","0","2023-02-06","13:25:30","427238224","1","null","experiment","4","experiment_U","1065","1","69","CEV","POS","1","","","","","","69","35","35","2","0","6","0","3","35","15","9","29","1","3106","3942","289","0"
"6.6.1","mac","0","2023-02-06","13:25:30","427238224","1","null","experiment","4","dispFeedback_U","1000","1","69","CEV","POS","1","44","0.7907142857142857029","34.6278571428571453339","44","0.4272786547493372944","69","35","35","2","0","7","0","3","35","16","9","29","1","765","3986","292","3"
"6.6.1","mac","0","2023-02-06","13:25:30","427238224","1","null","experiment","4","experiment_U","1034","1","48","CEV","POS","1","","","","","","48","35","35","2","0","7","0","3","35","16","9","29","1","765","3986","292","3"
"6.6.1","mac","0","2023-02-06","13:25:30","427238224","1","null","experiment","4","dispFeedback_U","1000","1","48","CEV","POS","1","164","0.2308571428571428719","37.9234285714285732638","0","0.7083445651708972779","48","35","35","2","0","8","0","3","35","17","9","29","1","4684","3986","292","0"
"6.6.1","mac","0","2023-02-06","13:25:30","427238224","1","null","experiment","4","experiment_U","495","1","0","CEV","POS","1","","","","","","0","35","35","2","0","8","0","3","35","17","9","29","1","4684","3986","292","0"
"6.6.1","mac","0","2023-02-06","13:25:30","427238224","1","null","experiment","4","dispFeedback_U","1000","1","0","CEV","POS","1","60","0.6507142857142856895","38.9521428571428529608","60","0.0004114580807302748","0","35","35","3","0","9","0","3","35","18","9","29","1","1745","4046","296","4"
"6.6.1","mac","0","2023-02-06","13:25:30","427238224","1","null","experiment","4","experiment_U","885","1","89","CEV","POS","1","","","","","","89","35","35","3","0","9","0","3","35","18","9","29","1","1745","4046","296","4"
"6.6.1","mac","0","2023-02-06","13:25:30","427238224","1","null","experiment","4","dispFeedback_U","1000","1","89","CEV","POS","1","56","0.6735714285714285987","37.6735714285714280436","56","0.3920740895886146715","89","35","35","4","0","10","0","3","35","19","9","29","0","1585","4102","300","4"
"6.6.1","mac","0","2023-02-06","13:25:30","427238224","1","null","experiment","4","experiment_noU","361","1","84","CEV","POS","1","","","","","","84","35","35","4","0","10","0","3","35","19","9","29","0","1585","4102","300","4"
"6.6.1","mac","0","2023-02-06","13:25:30","427238224","1","null","experiment","4","dispFeedback_noU","1000","1","84","CEV","POS","1","42","0.7841428571428571415","33.0792857142857101849","42","0.3847746174747065373","84","35","35","4","0","10","0","3","35","20","9","29","0","811","4144","303","3"
"6.6.1","mac","0","2023-02-06","13:25:30","427238224","1","null","experiment","4","experiment_noU","962","1","5","CEV","POS","1","","","","","","5","35","35","4","0","10","0","3","35","20","9","29","0","811","4144","303","3"
"6.6.1","mac","0","2023-02-06","13:25:30","427238224","1","null","experiment","4","dispFeedback_noU","1000","1","5","CEV","POS","1","66","0.5482857142857142652","36.4517142857142886214","66","0.2642596664988108857","5","35","35","4","0","10","0","3","35","21","9","29","0","2462","4210","308","5"
"6.6.1","mac","0","2023-02-06","13:25:30","427238224","1","null","experiment","4","experiment_noU","1412","1","49","CEV","POS","1","","","","","","49","35","35","4","0","10","0","3","35","21","9","29","0","2462","4210","308","5"
"6.6.1","mac","0","2023-02-06","13:25:30","427238224","1","null","experiment","4","dispFeedback_noU","1000","1","49","CEV","POS","1","43","0.884000000000000008","37.8840000000000003411","43","0.4025223130366118451","49","35","35","4","0","10","0","3","35","22","9","29","0","112","4253","311","3"
"6.6.1","mac","0","2023-02-06","13:25:30","427238224","1","null","experiment","4","experiment_noU","3014","1","20","CEV","POS","1","","","","","","20","35","35","4","0","10","0","3","35","22","9","29","0","112","4253","311","3"
"6.6.1","mac","0","2023-02-06","13:25:30","427238224","1","null","experiment","4","dispFeedback_noU","1000","1","20","CEV","POS","1","44","0.862285714285714322","37.8622857142857114354","44","0.3303788745148057981","20","35","35","4","0","10","0","3","35","23","9","29","0","264","4297","314","3"
"6.6.1","mac","0","2023-02-06","13:25:30","427238224","1","null","experiment","4","experiment_noU","305","1","74","CEV","POS","1","","","","","","74","35","35","4","0","10","0","3","35","23","9","29","0","264","4297","314","3"
"6.6.1","mac","0","2023-02-06","13:25:30","427238224","1","null","experiment","4","dispFeedback_noU","1000","1","74","CEV","POS","1","40","0.8635714285714285454","34.409285714285715585","40","0.353001816746080721","74","35","35","4","0","10","0","3","35","24","9","29","0","255","4337","317","3"
"6.6.1","mac","0","2023-02-06","13:25:30","427238224","1","null","experiment","4","experiment_noU","1766","1","42","CEV","POS","1","","","","","","42","35","35","4","0","10","0","3","35","24","9","29","0","255","4337","317","3"
"6.6.1","mac","0","2023-02-06","13:25:30","427238224","1","null","experiment","4","dispFeedback_noU","1000","1","42","CEV","POS","1","43","0.8834285714285714519","37.8834285714285741165","43","0.3974061895621489038","42","35","35","4","0","10","0","3","35","25","9","29","0","116","4380","320","3"
"6.6.1","mac","0","2023-02-06","13:25:30","427238224","1","null","experiment","4","experiment_noU","343","1","79","CEV","POS","1","","","","","","79","35","35","4","0","10","0","3","35","25","9","29","0","116","4380","320","3"
"6.6.1","mac","0","2023-02-06","13:25:30","427238224","1","null","experiment","4","dispFeedback_noU","1000","1","79","CEV","POS","1","41","0.8224285714285713977","33.7102857142857104122","41","0.0642495001815840405","79","35","35","4","0","10","0","3","35","26","9","29","0","543","4421","323","3"
"6.6.1","mac","0","2023-02-06","13:25:30","427238224","1","null","experiment","4","experiment_noU","1121","1","54","CEV","POS","1","","","","","","54","35","35","4","0","10","0","3","35","26","9","29","0","543","4421","323","3"
"6.6.1","mac","0","2023-02-06","13:25:30","427238224","1","null","experiment","4","dispFeedback_noU","1000","1","54","CEV","POS","1","40","0.8898571428571429021","35.2202857142857155281","40","0.35082922045859255","54","35","35","4","0","10","0","3","35","27","9","29","0","71","4461","326","3"
"6.6.1","mac","0","2023-02-06","13:25:30","427238224","1","null","experiment","4","experiment_noU","891","1","60","CEV","POS","1","","","","","","60","35","35","4","0","10","0","3","35","27","9","29","0","71","4461","326","3"
"6.6.1","mac","0","2023-02-06","13:25:30","427238224","1","null","experiment","4","dispFeedback_noU","1000","1","60","CEV","POS","1","46","0.8798571428571428932","40.5194285714285697964","0","0.9843823602386708727","60","35","35","4","0","10","0","3","35","28","9","29","0","141","4461","326","0"
"6.6.1","mac","0","2023-02-06","13:25:30","427238224","1","null","experiment","4","experiment_noU","867","1","62","CEV","POS","1","","","","","","62","35","35","4","0","10","0","3","35","28","9","29","0","141","4461","326","0"
"6.6.1","mac","0","2023-02-06","13:25:30","427238224","1","null","experiment","4","dispFeedback_noU","1000","1","62","CEV","POS","1","45","0.8689999999999999947","38.7379999999999995453","0","0.9921077727321786499","62","35","35","4","0","10","0","3","35","29","9","29","2","217","4461","326","0"
"6.6.1","mac","0","2023-02-06","13:25:30","427238224","1","null","experiment","4","experiment_U","1639","1","16","CEV","POS","1","","","","","","16","35","35","4","0","10","0","3","35","29","9","29","2","217","4461","326","0"
"6.6.1","mac","0","2023-02-06","13:25:30","427238224","1","null","experiment","4","dispFeedback_U","1000","1","16","CEV","POS","1","100","0.3729999999999999982","37.3729999999999975557","0","0.9823900554288155229","16","35","35","4","0","10","1","3","35","30","9","29","2","3689","4461","326","0"
"6.6.1","mac","0","2023-02-06","13:25:30","427238224","1","null","experiment","4","experiment_U","1559","1","35","CEV","POS","1","","","","","","35","35","35","4","0","10","1","3","35","30","9","29","2","3689","4461","326","0"
"6.6.1","mac","0","2023-02-06","13:25:30","427238224","1","null","experiment","4","dispFeedback_U","1000","1","35","CEV","POS","1","148","0.2487142857142856656","36.751285714285707229","0","0.2649525658378732995","35","35","35","4","0","10","2","3","35","31","9","29","2","4559","4461","326","0"
"6.6.1","mac","0","2023-02-06","13:25:30","427238224","1","null","experiment","4","experiment_U","1591","1","30","CEV","POS","1","","","","","","30","35","35","4","0","10","2","3","35","31","9","29","2","4559","4461","326","0"
"6.6.1","mac","0","2023-02-06","13:25:30","427238224","1","null","experiment","4","dispFeedback_U","1000","1","30","CEV","POS","1","131","0.2798571428571428044","36.7201428571428536429","131","0.0687548448491736436","30","35","35","4","0","10","3","3","35","32","9","29","2","4341","4592","335","9"
"6.6.1","mac","0","2023-02-06","13:25:30","427238224","1","null","experiment","4","experiment_U","2465","1","12","CEV","POS","1","","","","","","12","35","35","4","0","10","3","3","35","32","9","29","2","4341","4592","335","9"
"6.6.1","mac","0","2023-02-06","13:25:30","427238224","1","null","experiment","4","dispFeedback_U","1000","1","12","CEV","POS","1","128","0.2835714285714285854","36.4328571428571450497","0","0.8759242377420710657","12","35","35","4","0","10","4","3","35","33","9","29","2","4315","4592","335","0"
"6.6.1","mac","0","2023-02-06","13:25:30","427238224","1","null","experiment","4","experiment_U","4225","1","77","CEV","POS","1","","","","","","77","35","35","4","0","10","4","3","35","33","9","29","2","4315","4592","335","0"
"6.6.1","mac","0","2023-02-06","13:25:30","427238224","1","null","experiment","4","dispFeedback_U","1000","1","77","CEV","POS","1","131","0.2821428571428571397","37","0","0.9404976442317706242","77","35","35","4","0","10","5","3","35","34","9","29","2","4325","4592","335","0"
"6.6.1","mac","0","2023-02-06","13:25:30","427238224","1","null","experiment","4","experiment_U","2702","1","7","CEV","POS","1","","","","","","7","35","35","4","0","10","5","3","35","34","9","29","2","4325","4592","335","0"
"6.6.1","mac","0","2023-02-06","13:25:30","427238224","1","null","experiment","4","dispFeedback_U","1000","1","7","CEV","POS","1","128","0.2854285714285714759","36.4291428571428568262","128","0.0462270488604500512","7","35","35","4","0","10","6","3","35","35","9","29","2","4302","4720","344","9"
"6.6.1","mac","0","2023-02-06","13:25:30","427238224","1","null","experiment","5","experiment_noU","3116","1","98","IEV","POS","1","","","","","","98","25","10","0","0","0","0","4","32","0","10","26","2","4302","4720","344","9"
"6.6.1","mac","0","2023-02-06","13:25:30","427238224","1","null","experiment","5","dispFeedback_noU","1000","1","98","IEV","POS","1","165","0.322898250766177175","53.1383641900777305977","0","0.5793315788217194839","98","25","10","0","0","0","0","4","32","1","10","26","0","4266","4720","344","0"
"6.6.1","mac","0","2023-02-06","13:25:30","427238224","1","null","experiment","5","experiment_noU","904","1","64","IEV","POS","1","","","","","","64","25","10","0","0","0","0","4","32","1","10","26","0","4266","4720","344","0"
"6.6.1","mac","0","2023-02-06","13:25:30","427238224","1","null","experiment","5","dispFeedback_noU","1000","1","64","IEV","POS","1","22","0.8962735582578843507","19.2823509540418100983","22","0.1921012457907435578","64","25","10","0","0","0","0","4","32","2","10","26","0","354","4742","345","1"
"6.6.1","mac","0","2023-02-06","13:25:30","427238224","1","null","experiment","5","experiment_noU","476","1","53","IEV","POS","1","","","","","","53","25","10","0","0","0","0","4","32","2","10","26","0","354","4742","345","1"
"6.6.1","mac","0","2023-02-06","13:25:30","427238224","1","null","experiment","5","dispFeedback_noU","1000","1","53","IEV","POS","1","181","0.3011130683798056706","54.4737572359694297575","0","0.6816297854952583224","53","25","10","0","0","0","0","4","32","3","10","26","0","4376","4742","345","0"
"6.6.1","mac","0","2023-02-06","13:25:30","427238224","1","null","experiment","5","experiment_noU","533","1","93","IEV","POS","1","","","","","","93","25","10","0","0","0","0","4","32","3","10","26","0","4376","4742","345","0"
"6.6.1","mac","0","2023-02-06","13:25:30","427238224","1","null","experiment","5","dispFeedback_noU","1000","1","93","IEV","POS","1","28","0.831485814681194646","23.0971952057772540456","28","0.4398613552190040465","93","25","10","0","0","0","0","4","32","4","10","26","0","1433","4770","347","2"
"6.6.1","mac","0","2023-02-06","13:25:30","427238224","1","null","experiment","5","experiment_noU","446","1","51","IEV","POS","1","","","","","","51","25","10","0","0","0","0","4","32","4","10","26","0","1433","4770","347","2"
"6.6.1","mac","0","2023-02-06","13:25:30","427238224","1","null","experiment","5","dispFeedback_noU","1000","1","51","IEV","POS","1","163","0.3268961838708265844","53.3257580995982465311","163","0.2435062612042544206","51","25","10","0","0","0","0","4","32","5","10","26","0","4246","4933","357","10"
"6.6.1","mac","0","2023-02-06","13:25:30","427238224","1","null","experiment","5","experiment_noU","3259","1","97","IEV","POS","1","","","","","","97","25","10","0","0","0","0","4","32","5","10","26","0","4246","4933","357","10"
"6.6.1","mac","0","2023-02-06","13:25:30","427238224","1","null","experiment","5","dispFeedback_noU","1000","1","97","IEV","POS","1","184","0.3044563721795331968","55.8931678829864537761","184","0.2702552066813816989","97","25","10","0","0","0","0","4","32","6","10","26","0","4359","5117","367","10"
"6.6.1","mac","0","2023-02-06","13:25:30","427238224","1","null","experiment","5","experiment_noU","1655","1","28","IEV","POS","1","","","","","","28","25","10","0","0","0","0","4","32","6","10","26","0","4359","5117","367","10"
"6.6.1","mac","0","2023-02-06","13:25:30","427238224","1","null","experiment","5","dispFeedback_noU","1000","1","28","IEV","POS","1","172","0.3151340900423278968","54.3502928387971593338","0","0.4673967239138197005","28","25","10","0","0","0","0","4","32","7","10","26","0","4305","5117","367","0"
"6.6.1","mac","0","2023-02-06","13:25:30","427238224","1","null","experiment","5","experiment_noU","2514","1","10","IEV","POS","1","","","","","","10","25","10","0","0","0","0","4","32","7","10","26","0","4305","5117","367","0"
"6.6.1","mac","0","2023-02-06","13:25:30","427238224","1","null","experiment","5","dispFeedback_noU","1000","1","10","IEV","POS","1","167","0.3232975549876017096","54.0943928513370551059","0","0.3930502031913609695","10","25","10","0","0","0","0","4","32","8","10","26","0","4264","5117","367","0"
"6.6.1","mac","0","2023-02-06","13:25:30","427238224","1","null","experiment","5","experiment_noU","2931","1","5","IEV","POS","1","","","","","","5","25","10","0","0","0","0","4","32","8","10","26","0","4264","5117","367","0"
"6.6.1","mac","0","2023-02-06","13:25:30","427238224","1","null","experiment","5","dispFeedback_noU","1000","1","5","IEV","POS","1","195","0.2903588821091819261","56.5395524682565167041","0","0.3010788723596089511","5","25","10","0","0","0","0","4","32","9","10","26","0","4431","5117","367","0"
"6.6.1","mac","0","2023-02-06","13:25:30","427238224","1","null","experiment","5","experiment_noU","1088","1","42","IEV","POS","1","","","","","","42","25","10","0","0","0","0","4","32","9","10","26","0","4431","5117","367","0"
"6.6.1","mac","0","2023-02-06","13:25:30","427238224","1","null","experiment","5","dispFeedback_noU","1000","1","42","IEV","POS","1","198","0.2889971828503358209","57.1495677221359201781","0","0.8386351193391333725","42","25","10","0","0","0","0","4","32","10","10","26","1","4438","5117","367","0"
"6.6.1","mac","0","2023-02-06","13:25:30","427238224","1","null","experiment","5","experiment_U","1764","1","88","IEV","POS","1","","","","","","88","25","10","0","0","0","0","4","32","10","10","26","1","4438","5117","367","0"
"6.6.1","mac","0","2023-02-06","13:25:30","427238224","1","null","experiment","5","dispFeedback_U","1000","1","88","IEV","POS","1","49","0.6937260058102824312","33.8971096825356781324","49","0.2495141488615223446","88","25","10","1","0","1","0","4","32","11","10","26","1","2414","5166","371","4"
"6.6.1","mac","0","2023-02-06","13:25:30","427238224","1","null","experiment","5","experiment_U","1323","1","37","IEV","POS","1","","","","","","37","25","10","1","0","1","0","4","32","11","10","26","1","2414","5166","371","4"
"6.6.1","mac","0","2023-02-06","13:25:30","427238224","1","null","experiment","5","dispFeedback_U","1000","1","37","IEV","POS","1","191","0.2919170784441038613","55.6269423711345325501","191","0.1666780533657125363","37","25","10","1","0","2","0","4","32","12","10","26","1","4423","5357","381","10"
"6.6.1","mac","0","2023-02-06","13:25:30","427238224","1","null","experiment","5","experiment_U","1129","1","2","IEV","POS","1","","","","","","2","25","10","1","0","2","0","4","32","12","10","26","1","4423","5357","381","10"
"6.6.1","mac","0","2023-02-06","13:25:30","427238224","1","null","experiment","5","dispFeedback_U","1000","1","2","IEV","POS","1","57","0.6823095495398735499","38.8393698541584058148","57","0.4278505962406868313","2","25","10","2","0","3","0","4","32","13","10","26","1","2479","5414","385","4"
"6.6.1","mac","0","2023-02-06","13:25:30","427238224","1","null","experiment","5","experiment_U","1392","1","36","IEV","POS","1","","","","","","36","25","10","2","0","3","0","4","32","13","10","26","1","2479","5414","385","4"
"6.6.1","mac","0","2023-02-06","13:25:30","427238224","1","null","experiment","5","dispFeedback_U","1000","1","36","IEV","POS","1","190","0.2882197950252321506","54.8604557860074351083","0","0.7720270985206652004","36","25","10","2","0","4","0","4","32","14","10","26","1","4442","5414","385","0"
"6.6.1","mac","0","2023-02-06","13:25:30","427238224","1","null","experiment","5","experiment_U","420","1","66","IEV","POS","1","","","","","","66","25","10","2","0","4","0","4","32","14","10","26","1","4442","5414","385","0"
"6.6.1","mac","0","2023-02-06","13:25:30","427238224","1","null","experiment","5","dispFeedback_U","1000","1","66","IEV","POS","1","308","0.1908953008864818501","58.8041979275940391858","308","0.0077556967753348166","66","25","10","2","0","5","0","4","32","15","10","26","1","4970","5722","395","10"
"6.6.1","mac","0","2023-02-06","13:25:30","427238224","1","null","experiment","5","experiment_U","335","1","64","IEV","POS","1","","","","","","64","25","10","2","0","5","0","4","32","15","10","26","1","4970","5722","395","10"
"6.6.1","mac","0","2023-02-06","13:25:30","427238224","1","null","experiment","5","dispFeedback_U","1000","1","64","IEV","POS","1","253","0.2237156126460066452","56.5589909567259994105","0","0.8556067077106811469","64","25","10","2","0","6","0","4","32","16","10","26","1","4785","5722","395","0"
"6.6.1","mac","0","2023-02-06","13:25:30","427238224","1","null","experiment","5","experiment_U","299","1","70","IEV","POS","1","","","","","","70","25","10","2","0","6","0","4","32","16","10","26","1","4785","5722","395","0"
"6.6.1","mac","0","2023-02-06","13:25:30","427238224","1","null","experiment","5","dispFeedback_U","1000","1","70","IEV","POS","1","20","0.8998722476930515191","17.7089022550431245406","0","0.9046861873717713109","70","25","10","3","0","7","0","4","32","17","10","26","1","49","5722","395","0"
"6.6.1","mac","0","2023-02-06","13:25:30","427238224","1","null","experiment","5","experiment_U","828","1","49","IEV","POS","1","","","","","","49","25","10","3","0","7","0","4","32","17","10","26","1","49","5722","395","0"
"6.6.1","mac","0","2023-02-06","13:25:30","427238224","1","null","experiment","5","dispFeedback_U","1000","1","49","IEV","POS","1","204","0.2716373588867488365","55.3344900551094980301","204","0.2282993817302164108","49","25","10","3","0","8","0","4","32","18","10","26","1","4528","5926","405","10"
"6.6.1","mac","0","2023-02-06","13:25:30","427238224","1","null","experiment","5","experiment_U","437","1","77","IEV","POS","1","","","","","","77","25","10","3","0","8","0","4","32","18","10","26","1","4528","5926","405","10"
"6.6.1","mac","0","2023-02-06","13:25:30","427238224","1","null","experiment","5","dispFeedback_U","1000","1","77","IEV","POS","1","18","0.891421140299282655","15.7596994329664870094","18","0.3087662796743135818","77","25","10","3","0","9","0","4","32","19","10","26","1","537","5944","406","1"
"6.6.1","mac","0","2023-02-06","13:25:30","427238224","1","null","experiment","5","experiment_U","1326","1","36","IEV","POS","1","","","","","","36","25","10","3","0","9","0","4","32","19","10","26","1","537","5944","406","1"
"6.6.1","mac","0","2023-02-06","13:25:30","427238224","1","null","experiment","5","dispFeedback_U","1000","1","36","IEV","POS","1","183","0.3011130683798056706","55.0759833727290413208","0","0.4069573731177852927","36","25","10","3","0","10","0","4","32","20","10","26","1","4376","5944","406","0"
"6.6.1","mac","0","2023-02-06","13:25:30","427238224","1","null","experiment","5","experiment_U","346","1","60","IEV","POS","1","","","","","","60","25","10","3","0","10","0","4","32","20","10","26","1","4376","5944","406","0"
"6.6.1","mac","0","2023-02-06","13:25:30","427238224","1","null","experiment","5","dispFeedback_U","1000","1","60","IEV","POS","1","221","0.258711224919280558","57.2381870713545808371","221","0.0180673894980147923","60","25","10","3","0","11","0","4","32","21","10","26","1","4596","6165","416","10"
"6.6.1","mac","0","2023-02-06","13:25:30","427238224","1","null","experiment","5","experiment_U","1989","1","84","IEV","POS","1","","","","","","84","25","10","3","0","11","0","4","32","21","10","26","1","4596","6165","416","10"
"6.6.1","mac","0","2023-02-06","13:25:30","427238224","1","null","experiment","5","dispFeedback_U","1000","1","84","IEV","POS","1","55","0.6893630163657649135","37.6706133158949256767","0","0.7131916702988537748","84","25","10","4","0","12","0","4","32","22","10","26","0","2439","6165","416","0"
"6.6.1","mac","0","2023-02-06","13:25:30","427238224","1","null","experiment","5","experiment_noU","320","1","68","IEV","POS","1","","","","","","68","25","10","4","0","12","0","4","32","22","10","26","0","2439","6165","416","0"
"6.6.1","mac","0","2023-02-06","13:25:30","427238224","1","null","experiment","5","dispFeedback_noU","1000","1","68","IEV","POS","1","306","0.1908953008864818501","58.4224073258210765403","0","0.8375009265349947496","68","25","10","4","0","12","0","4","32","23","10","26","0","4970","6165","416","0"
"6.6.1","mac","0","2023-02-06","13:25:30","427238224","1","null","experiment","5","experiment_noU","1434","1","72","IEV","POS","1","","","","","","72","25","10","4","0","12","0","4","32","23","10","26","0","4970","6165","416","0"
"6.6.1","mac","0","2023-02-06","13:25:30","427238224","1","null","experiment","5","dispFeedback_noU","1000","1","72","IEV","POS","1","29","0.8459215445195666927","24.8200441236918223353","29","0.1921732668281004863","72","25","10","4","0","12","0","4","32","24","10","26","0","1284","6194","418","2"
"6.6.1","mac","0","2023-02-06","13:25:30","427238224","1","null","experiment","5","experiment_noU","1458","1","72","IEV","POS","1","","","","","","72","25","10","4","0","12","0","4","32","24","10","26","0","1284","6194","418","2"
"6.6.1","mac","0","2023-02-06","13:25:30","427238224","1","null","experiment","5","dispFeedback_noU","1000","1","72","IEV","POS","1","32","0.8437193700671339336","26.7603154607107143192","32","0.6593185266617961338","72","25","10","4","0","12","0","4","32","25","10","26","0","1308","6226","420","2"
"6.6.1","mac","0","2023-02-06","13:25:30","427238224","1","null","experiment","5","experiment_noU","4669","1","71","IEV","POS","1","","","","","","71","25","10","4","0","12","0","4","32","25","10","26","0","1308","6226","420","2"
"6.6.1","mac","0","2023-02-06","13:25:30","427238224","1","null","experiment","5","dispFeedback_noU","1000","1","71","IEV","POS","1","193","0.2829863968949362651","54.7299004967788604858","0","0.3110308412720986793","71","25","10","4","0","12","0","4","32","26","10","26","2","4469","6226","420","0"
"6.6.1","mac","0","2023-02-06","13:25:30","427238224","1","null","experiment","5","experiment_U","1715","1","16","IEV","POS","1","","","","","","16","25","10","4","0","12","0","4","32","26","10","26","2","4469","6226","420","0"
"6.6.1","mac","0","2023-02-06","13:25:30","427238224","1","null","experiment","5","dispFeedback_U","1000","1","16","IEV","POS","1","125","0.4255550809727481343","53.3216284568866356608","0","0.7320143535574931137","16","25","10","4","1","12","1","4","32","27","10","26","2","3765","6226","420","0"
"6.6.1","mac","0","2023-02-06","13:25:30","427238224","1","null","experiment","5","experiment_U","3078","1","89","IEV","POS","1","","","","","","89","25","10","4","1","12","1","4","32","27","10","26","2","3765","6226","420","0"
"6.6.1","mac","0","2023-02-06","13:25:30","427238224","1","null","experiment","5","dispFeedback_U","1000","1","89","IEV","POS","1","122","0.42284553880745257","51.7238310946664512358","122","0.3304967732006909298","89","25","10","4","2","12","2","4","32","28","10","26","2","3778","6348","428","8"
"6.6.1","mac","0","2023-02-06","13:25:30","427238224","1","null","experiment","5","experiment_U","853","1","34","IEV","POS","1","","","","","","34","25","10","4","2","12","2","4","32","28","10","26","2","3778","6348","428","8"
"6.6.1","mac","0","2023-02-06","13:25:30","427238224","1","null","experiment","5","dispFeedback_U","1000","1","34","IEV","POS","1","123","0.4176385724065871385","51.5048373872410465424","0","0.4513291114595087694","34","25","10","4","3","12","3","4","32","29","10","26","2","3803","6348","428","0"
"6.6.1","mac","0","2023-02-06","13:25:30","427238224","1","null","experiment","5","experiment_U","788","1","35","IEV","POS","1","","","","","","35","25","10","4","3","12","3","4","32","29","10","26","2","3803","6348","428","0"
"6.6.1","mac","0","2023-02-06","13:25:30","427238224","1","null","experiment","5","dispFeedback_U","1000","1","35","IEV","POS","1","118","0.4207621432765624725","49.6998212479060299529","0","0.9808611115396165259","35","25","10","4","4","12","4","4","32","30","10","26","0","3788","6348","428","0"
"6.6.1","mac","0","2023-02-06","13:25:30","427238224","1","null","experiment","5","experiment_noU","703","1","66","IEV","POS","1","","","","","","66","25","10","4","4","12","4","4","32","30","10","26","0","3788","6348","428","0"
"6.6.1","mac","0","2023-02-06","13:25:30","427238224","1","null","experiment","5","dispFeedback_noU","1000","1","66","IEV","POS","1","19","0.8980434113236003268","17.1222419299444688079","19","0.5997567564714133548","66","25","10","4","4","12","4","4","32","31","10","26","0","253","6367","429","1"
"6.6.1","mac","0","2023-02-06","13:25:30","427238224","1","null","experiment","5","experiment_noU","1461","1","23","IEV","POS","1","","","","","","23","25","10","4","4","12","4","4","32","31","10","26","0","253","6367","429","1"
"6.6.1","mac","0","2023-02-06","13:25:30","427238224","1","null","experiment","5","dispFeedback_noU","1000","1","23","IEV","POS","1","123","0.4055805884096526648","49.9387939404920757624","0","0.6231825220452580361","23","25","10","4","4","12","4","4","32","32","10","26","0","3861","6367","429","0"
"6.6.1","mac","0","2023-02-06","13:25:30","427238224","1","null","experiment","6","experiment_noU","2569","1","14","DEV","POS","1","","","","","","14","45","1","0","0","0","0","5","41","0","8","31","0","3861","6367","429","0"
"6.6.1","mac","0","2023-02-06","13:25:30","427238224","1","null","experiment","6","dispFeedback_noU","1000","1","14","DEV","POS","1","82","0.2354964471633140821","19.2166539571761809668","0","0.4302675170894403878","14","45","1","0","0","0","0","5","41","1","8","31","0","4519","6367","429","0"
"6.6.1","mac","0","2023-02-06","13:25:30","427238224","1","null","experiment","6","experiment_noU","854","1","47","DEV","POS","1","","","","","","47","45","1","0","0","0","0","5","41","1","8","31","0","4519","6367","429","0"
"6.6.1","mac","0","2023-02-06","13:25:30","427238224","1","null","experiment","6","dispFeedback_noU","1000","1","47","DEV","POS","1","90","0.2415377496304034755","21.8531964733060632966","0","0.6527790277387898188","47","45","1","0","0","0","0","5","41","2","8","31","0","4454","6367","429","0"
"6.6.1","mac","0","2023-02-06","13:25:30","427238224","1","null","experiment","6","experiment_noU","1968","1","20","DEV","POS","1","","","","","","20","45","1","0","0","0","0","5","41","2","8","31","0","4454","6367","429","0"
"6.6.1","mac","0","2023-02-06","13:25:30","427238224","1","null","experiment","6","dispFeedback_noU","1000","1","20","DEV","POS","1","81","0.2623459583172975673","21.2517468210914408644","0","0.480311579648477871","20","45","1","0","0","0","0","5","41","3","8","31","0","4218","6367","429","0"
"6.6.1","mac","0","2023-02-06","13:25:30","427238224","1","null","experiment","6","experiment_noU","376","1","66","DEV","POS","1","","","","","","66","45","1","0","0","0","0","5","41","3","8","31","0","4218","6367","429","0"
"6.6.1","mac","0","2023-02-06","13:25:30","427238224","1","null","experiment","6","dispFeedback_noU","1000","1","66","DEV","POS","1","85","0.1940049321687072614","16.5586197069507825574","0","0.9316580560830557411","66","45","1","0","0","0","0","5","41","4","8","31","0","4926","6367","429","0"
"6.6.1","mac","0","2023-02-06","13:25:30","427238224","1","null","experiment","6","experiment_noU","1813","1","25","DEV","POS","1","","","","","","25","45","1","0","0","0","0","5","41","4","8","31","0","4926","6367","429","0"
"6.6.1","mac","0","2023-02-06","13:25:30","427238224","1","null","experiment","6","dispFeedback_noU","1000","1","25","DEV","POS","1","82","0.2541675013149729545","20.8920343918812285722","0","0.9826270674780539505","25","45","1","0","0","0","0","5","41","5","8","31","0","4313","6367","429","0"
"6.6.1","mac","0","2023-02-06","13:25:30","427238224","1","null","experiment","6","experiment_noU","2211","1","39","DEV","POS","1","","","","","","39","45","1","0","0","0","0","5","41","5","8","31","0","4313","6367","429","0"
"6.6.1","mac","0","2023-02-06","13:25:30","427238224","1","null","experiment","6","dispFeedback_noU","1000","1","39","DEV","POS","1","74","0.7875741937517182212","58.3829993379418823451","74","0.5708014829016293534","39","45","1","0","0","0","0","5","41","6","8","31","0","411","6441","434","5"
"6.6.1","mac","0","2023-02-06","13:25:30","427238224","1","null","experiment","6","experiment_noU","2714","1","28","DEV","POS","1","","","","","","28","45","1","0","0","0","0","5","41","6","8","31","0","411","6441","434","5"
"6.6.1","mac","0","2023-02-06","13:25:30","427238224","1","null","experiment","6","dispFeedback_noU","1000","1","28","DEV","POS","1","74","0.7999355077143237569","58.9535724127601454825","74","0.5014900147219863991","28","45","1","0","0","0","0","5","41","7","8","31","0","364","6515","439","5"
"6.6.1","mac","0","2023-02-06","13:25:30","427238224","1","null","experiment","6","experiment_noU","2163","1","49","DEV","POS","1","","","","","","49","45","1","0","0","0","0","5","41","7","8","31","0","364","6515","439","5"
"6.6.1","mac","0","2023-02-06","13:25:30","427238224","1","null","experiment","6","dispFeedback_noU","1000","1","49","DEV","POS","1","75","0.6765074594290505505","50.4293172181705031676","0","0.8322505084407167963","49","45","1","0","0","0","0","5","41","8","8","31","1","863","6515","439","0"
"6.6.1","mac","0","2023-02-06","13:25:30","427238224","1","null","experiment","6","experiment_U","2423","1","14","DEV","POS","1","","","","","","14","45","1","0","0","0","0","5","41","8","8","31","1","863","6515","439","0"
"6.6.1","mac","0","2023-02-06","13:25:30","427238224","1","null","experiment","6","dispFeedback_U","1000","1","14","DEV","POS","1","86","0.248869014206560546","21.4815959330017776097","0","0.4433148935072391272","14","45","1","0","0","1","0","5","41","9","8","31","1","4373","6515","439","0"
"6.6.1","mac","0","2023-02-06","13:25:30","427238224","1","null","experiment","6","experiment_U","279","1","79","DEV","POS","1","","","","","","79","45","1","0","0","1","0","5","41","9","8","31","1","4373","6515","439","0"
"6.6.1","mac","0","2023-02-06","13:25:30","427238224","1","null","experiment","6","dispFeedback_U","1000","1","79","DEV","POS","1","66","0.7699433448773868038","50.6039250204513493259","66","0.6841523062168043401","79","45","1","0","0","2","0","5","41","10","8","31","1","479","6581","444","5"
"6.6.1","mac","0","2023-02-06","13:25:30","427238224","1","null","experiment","6","experiment_U","350","1","75","DEV","POS","1","","","","","","75","45","1","0","0","2","0","5","41","10","8","31","1","479","6581","444","5"
"6.6.1","mac","0","2023-02-06","13:25:30","427238224","1","null","experiment","6","dispFeedback_U","1000","1","75","DEV","POS","1","69","0.8036445612032346864","55.102254540315811937","69","0.0915587044068515987","75","45","1","0","0","3","0","5","41","11","8","31","1","350","6650","449","5"
"6.6.1","mac","0","2023-02-06","13:25:30","427238224","1","null","experiment","6","experiment_U","1170","1","59","DEV","POS","1","","","","","","59","45","1","0","0","3","0","5","41","11","8","31","1","350","6650","449","5"
"6.6.1","mac","0","2023-02-06","13:25:30","427238224","1","null","experiment","6","dispFeedback_U","1000","1","59","DEV","POS","1","74","0.7983496678502792765","58.8815925924278289472","74","0.3437738396096448046","59","45","1","0","0","4","0","5","41","12","8","31","1","370","6724","454","5"
"6.6.1","mac","0","2023-02-06","13:25:30","427238224","1","null","experiment","6","experiment_U","3042","1","22","DEV","POS","1","","","","","","22","45","1","0","0","4","0","5","41","12","8","31","1","370","6724","454","5"
"6.6.1","mac","0","2023-02-06","13:25:30","427238224","1","null","experiment","6","dispFeedback_U","1000","1","22","DEV","POS","1","66","0.7925543733121576118","52.2750331252372930635","66","0.539585039843708536","22","45","1","0","0","5","0","5","41","13","8","31","1","392","6790","459","5"
"6.6.1","mac","0","2023-02-06","13:25:30","427238224","1","null","experiment","6","experiment_U","3324","1","15","DEV","POS","1","","","","","","15","45","1","0","0","5","0","5","41","13","8","31","1","392","6790","459","5"
"6.6.1","mac","0","2023-02-06","13:25:30","427238224","1","null","experiment","6","dispFeedback_U","1000","1","15","DEV","POS","1","66","0.8105650063790034165","53.7523898640790207537","66","0.1175574846839433224","15","45","1","0","0","6","0","5","41","14","8","31","1","324","6856","464","5"
"6.6.1","mac","0","2023-02-06","13:25:30","427238224","1","null","experiment","6","experiment_U","2472","1","33","DEV","POS","1","","","","","","33","45","1","0","0","6","0","5","41","14","8","31","1","324","6856","464","5"
"6.6.1","mac","0","2023-02-06","13:25:30","427238224","1","null","experiment","6","dispFeedback_U","1000","1","33","DEV","POS","1","69","0.7978215576028483413","54.8684331205284934185","69","0.6502172829700207934","33","45","1","0","0","7","0","5","41","15","8","31","1","372","6925","469","5"
"6.6.1","mac","0","2023-02-06","13:25:30","427238224","1","null","experiment","6","experiment_U","3541","1","11","DEV","POS","1","","","","","","11","45","1","0","0","7","0","5","41","15","8","31","1","372","6925","469","5"
"6.6.1","mac","0","2023-02-06","13:25:30","427238224","1","null","experiment","6","dispFeedback_U","1000","1","11","DEV","POS","1","69","0.8060353872508577711","56.0028314569565637271","0","0.8343106766311243483","11","45","1","0","0","8","0","5","41","16","8","31","1","341","6925","469","0"
"6.6.1","mac","0","2023-02-06","13:25:30","427238224","1","null","experiment","6","experiment_U","314","1","94","DEV","POS","1","","","","","","94","45","1","0","0","8","0","5","41","16","8","31","1","341","6925","469","0"
"6.6.1","mac","0","2023-02-06","13:25:30","427238224","1","null","experiment","6","dispFeedback_U","1000","1","94","DEV","POS","1","80","0.5911365829195551758","47.1888875267727883056","0","0.950205302320002887","94","45","1","0","0","9","0","5","41","17","8","31","1","1264","6925","469","0"
"6.6.1","mac","0","2023-02-06","13:25:30","427238224","1","null","experiment","6","experiment_U","2937","1","22","DEV","POS","1","","","","","","22","45","1","0","0","9","0","5","41","17","8","31","1","1264","6925","469","0"
"6.6.1","mac","0","2023-02-06","13:25:30","427238224","1","null","experiment","6","dispFeedback_U","1000","1","22","DEV","POS","1","72","0.8204842240852343593","59.0311326485386231866","72","0.5789400522082438494","22","45","1","1","0","10","0","5","41","18","8","31","1","287","6997","474","5"
"6.6.1","mac","0","2023-02-06","13:25:30","427238224","1","null","experiment","6","experiment_U","518","1","70","DEV","POS","1","","","","","","70","45","1","1","0","10","0","5","41","18","8","31","1","287","6997","474","5"
"6.6.1","mac","0","2023-02-06","13:25:30","427238224","1","null","experiment","6","dispFeedback_U","1000","1","70","DEV","POS","1","70","0.8256095958540098367","57.5881854456433543987","70","0.6810174567347898611","70","45","1","2","0","11","0","5","41","19","8","31","1","268","7067","479","5"
"6.6.1","mac","0","2023-02-06","13:25:30","427238224","1","null","experiment","6","experiment_U","357","1","89","DEV","POS","1","","","","","","89","45","1","2","0","11","0","5","41","19","8","31","1","268","7067","479","5"
"6.6.1","mac","0","2023-02-06","13:25:30","427238224","1","null","experiment","6","dispFeedback_U","1000","1","89","DEV","POS","1","78","0.6335835195595600489","49.2380757718883259599","78","0.3468814253217730181","89","45","1","3","0","12","0","5","41","20","8","31","1","1057","7145","485","6"
"6.6.1","mac","0","2023-02-06","13:25:30","427238224","1","null","experiment","6","experiment_U","3000","1","22","DEV","POS","1","","","","","","22","45","1","3","0","12","0","5","41","20","8","31","1","1057","7145","485","6"
"6.6.1","mac","0","2023-02-06","13:25:30","427238224","1","null","experiment","6","dispFeedback_U","1000","1","22","DEV","POS","1","67","0.8036445612032346864","53.4949654179093414541","0","0.8512116740111288493","22","45","1","3","0","13","0","5","41","21","8","31","1","350","7145","485","0"
"6.6.1","mac","0","2023-02-06","13:25:30","427238224","1","null","experiment","6","experiment_U","1020","1","61","DEV","POS","1","","","","","","61","45","1","3","0","13","0","5","41","21","8","31","1","350","7145","485","0"
"6.6.1","mac","0","2023-02-06","13:25:30","427238224","1","null","experiment","6","dispFeedback_U","1000","1","61","DEV","POS","1","73","0.8116333684472802901","59.4729050596517083704","73","0.7687925542166439419","61","45","1","4","0","14","0","5","41","22","8","31","0","320","7218","490","5"
"6.6.1","mac","0","2023-02-06","13:25:30","427238224","1","null","experiment","6","experiment_noU","3955","1","1","DEV","POS","1","","","","","","1","45","1","4","0","14","0","5","41","22","8","31","0","320","7218","490","5"
"6.6.1","mac","0","2023-02-06","13:25:30","427238224","1","null","experiment","6","dispFeedback_noU","1000","1","1","DEV","POS","1","71","0.8291286156607553526","58.5506694792864479382","71","0.3408496115218963562","1","45","1","4","0","14","0","5","41","23","8","31","0","255","7289","495","5"
"6.6.1","mac","0","2023-02-06","13:25:30","427238224","1","null","experiment","6","experiment_noU","1141","1","58","DEV","POS","1","","","","","","58","45","1","4","0","14","0","5","41","23","8","31","0","255","7289","495","5"
"6.6.1","mac","0","2023-02-06","13:25:30","427238224","1","null","experiment","6","dispFeedback_noU","1000","1","58","DEV","POS","1","71","0.819407918543327618","58.1674290090860282021","0","0.9028894300346470558","58","45","1","4","0","14","0","5","41","24","8","31","0","291","7289","495","0"
"6.6.1","mac","0","2023-02-06","13:25:30","427238224","1","null","experiment","6","experiment_noU","1563","1","54","DEV","POS","1","","","","","","54","45","1","4","0","14","0","5","41","24","8","31","0","291","7289","495","0"
"6.6.1","mac","0","2023-02-06","13:25:30","427238224","1","null","experiment","6","dispFeedback_noU","1000","1","54","DEV","POS","1","76","0.7612436888765561349","57.8610054576898207301","0","0.9632979703515995862","54","45","1","4","0","14","0","5","41","25","8","31","0","513","7289","495","0"
"6.6.1","mac","0","2023-02-06","13:25:30","427238224","1","null","experiment","6","experiment_noU","1160","1","51","DEV","POS","1","","","","","","51","45","1","4","0","14","0","5","41","25","8","31","0","513","7289","495","0"
"6.6.1","mac","0","2023-02-06","13:25:30","427238224","1","null","experiment","6","dispFeedback_noU","1000","1","51","DEV","POS","1","90","0.1902259168609259365","17.1986659734489926166","90","0.0420910101481925258","51","45","1","4","0","14","0","5","41","26","8","31","0","4960","7379","502","7"
"6.6.1","mac","0","2023-02-06","13:25:30","427238224","1","null","experiment","6","experiment_noU","2734","1","30","DEV","POS","1","","","","","","30","45","1","4","0","14","0","5","41","26","8","31","0","4960","7379","502","7"
"6.6.1","mac","0","2023-02-06","13:25:30","427238224","1","null","experiment","6","dispFeedback_noU","1000","1","30","DEV","POS","1","70","0.7686590780083656371","53.6266828936269277506","70","0.3710717506173699665","30","45","1","4","0","14","0","5","41","27","8","31","0","484","7449","507","5"
"6.6.1","mac","0","2023-02-06","13:25:30","427238224","1","null","experiment","6","experiment_noU","2977","1","14","DEV","POS","1","","","","","","14","45","1","4","0","14","0","5","41","27","8","31","0","484","7449","507","5"
"6.6.1","mac","0","2023-02-06","13:25:30","427238224","1","null","experiment","6","dispFeedback_noU","1000","1","14","DEV","POS","1","82","0.1938945121823618667","15.9678562639944701118","0","0.3665048601959144947","14","45","1","4","0","14","0","5","41","28","8","31","0","4927","7449","507","0"
"6.6.1","mac","0","2023-02-06","13:25:30","427238224","1","null","experiment","6","experiment_noU","2234","1","40","DEV","POS","1","","","","","","40","45","1","4","0","14","0","5","41","28","8","31","0","4927","7449","507","0"
"6.6.1","mac","0","2023-02-06","13:25:30","427238224","1","null","experiment","6","dispFeedback_noU","1000","1","40","DEV","POS","1","67","0.7686590780083656371","51.320705659601834725","67","0.7206260230673071643","40","45","1","4","0","14","0","5","41","29","8","31","0","484","7516","512","5"
"6.6.1","mac","0","2023-02-06","13:25:30","427238224","1","null","experiment","6","experiment_noU","338","1","91","DEV","POS","1","","","","","","91","45","1","4","0","14","0","5","41","29","8","31","0","484","7516","512","5"
"6.6.1","mac","0","2023-02-06","13:25:30","427238224","1","null","experiment","6","dispFeedback_noU","1000","1","91","DEV","POS","1","76","0.6165571304167077882","46.9596626125591001255","76","0.2910322361372020827","91","45","1","4","0","14","0","5","41","30","8","31","0","1138","7592","518","6"
"6.6.1","mac","0","2023-02-06","13:25:30","427238224","1","null","experiment","6","experiment_noU","307","1","95","DEV","POS","1","","","","","","95","45","1","4","0","14","0","5","41","30","8","31","0","1138","7592","518","6"
"6.6.1","mac","0","2023-02-06","13:25:30","427238224","1","null","experiment","6","dispFeedback_noU","1000","1","95","DEV","POS","1","73","0.5827593569461262391","42.5670531910418645793","73","0.1137588331740719411","95","45","1","4","0","14","0","5","41","31","8","31","2","1307","7665","523","5"
"6.6.1","mac","0","2023-02-06","13:25:30","427238224","1","null","experiment","6","experiment_U","351","1","89","DEV","POS","1","","","","","","89","45","1","4","0","14","0","5","41","31","8","31","2","1307","7665","523","5"
"6.6.1","mac","0","2023-02-06","13:25:30","427238224","1","null","experiment","6","dispFeedback_U","1000","1","89","DEV","POS","1","78","0.6348659123076645372","49.3160179553998503366","0","0.6651812264847525302","89","45","1","4","0","14","1","5","41","32","8","31","2","1051","7665","523","0"
"6.6.1","mac","0","2023-02-06","13:25:30","427238224","1","null","experiment","6","experiment_U","314","1","90","DEV","POS","1","","","","","","90","45","1","4","0","14","1","5","41","32","8","31","2","1051","7665","523","0"
"6.6.1","mac","0","2023-02-06","13:25:30","427238224","1","null","experiment","6","dispFeedback_U","1000","1","90","DEV","POS","1","73","0.6320910760319500277","45.9867700653893436424","73","0.3319165448965310516","90","45","1","4","0","14","2","5","41","33","8","31","2","1064","7738","528","5"
"6.6.1","mac","0","2023-02-06","13:25:30","427238224","1","null","experiment","6","experiment_U","2078","1","34","DEV","POS","1","","","","","","34","45","1","4","0","14","2","5","41","33","8","31","2","1064","7738","528","5"
"6.6.1","mac","0","2023-02-06","13:25:30","427238224","1","null","experiment","6","dispFeedback_U","1000","1","34","DEV","POS","1","63","0.8920593894595937323","56.1132211257137782923","63","0.2199662824207838374","34","45","1","4","1","14","3","5","41","34","8","31","2","28","7801","533","5"
"6.6.1","mac","0","2023-02-06","13:25:30","427238224","1","null","experiment","6","experiment_U","341","1","85","DEV","POS","1","","","","","","85","45","1","4","1","14","3","5","41","34","8","31","2","28","7801","533","5"
"6.6.1","mac","0","2023-02-06","13:25:30","427238224","1","null","experiment","6","dispFeedback_U","1000","1","85","DEV","POS","1","72","0.6815627941331163786","49.3464196952658298301","0","0.7879106851266488576","85","45","1","4","1","14","4","5","41","35","8","31","2","841","7801","533","0"
